Folder: BatteryTemperatureCharacteristics/csvFiles/20210227 (part 2)

File: temp5.CSV
[TEST CONDITION]
CondName,バッテリ温度特性試験20210227
ModelID,21
Average,0
CheckDut,FALSE
AutoFine,FALSE
DateTime,2021/02/27,21:40:39
Operator,米山まうむ
Notes,運用に向けてバッテリの温度特性を測定する
運用時の消費電流を鑑み，0.1C放電で行う
なおこんなに運用直前にやることではないので，次期プロジェクトの人間はもっと早い段階で行うことをお勧めする
BatteryName,UF103450P
NominalCapacity[mAh],1800.0
NominalVoltage[V],3.70000
Volume[ml],0.10
Weight[g],38.30
SoftOvp[V],4.40000
SoftUvp[V],2.50000
SoftOah[%],110
SoftOtp[°C],60.00000
DeltaT[s],10.00000
DeltaV[V],0.10000
DeltaI[A],0.10000
ImpRange[ohm],0
Frequency[Hz],1000
AutoRange,FALSE
AfterCharge,FALSE
AfterChargeRest,FALSE
AfterDischarge,FALSE
AfterDischargeRest,FALSE
CapacityRate_C[%],OFF
CapacityRate_D[%],OFF
Impedance_C[ohm],OFF
Impedance_D[ohm],OFF
SeqInfoName,

[CHARGE SHEET]
SheetNo,2
Range,HIGH
Mode,CC-CV
ChargeTime[s],0
RestTime[s],0
Current[A],0.00000
CvVolt[V],0.00000
CvTime[s],0
ItCurrent[A],OFF
ItTime[s],OFF

[DISCHARGE SHEET]
SheetNo,2
Range,HIGH
Mode,CC
DischargeTime[s],43200
RestTime[s],0
Current[A],0.18800
CapacityVolt[V],3.70000
CutoffVolt[V],2.75000

[DISCHARGE MONITOR]
TimeElapsed[s],StdState,OpnState,LowRange,Capacity[mAh],Power[Wh],Curr[A],Volt[V],VoltHi[V],VoltLo[V],Temp[°C],TermState,CellVolt[V],CellVoltHi[V],CellVoltLo[V],CellTemp[°C],(continued)
0,0x000E,0,FALSE,0.00000,0.00000,0.00000,4.07920,NAN,NAN,5.20000
210,0x000E,1,FALSE,10.86283,0.04375,0.18930,4.02010,NAN,NAN,5.40000
430,0x000E,1,FALSE,22.29519,0.08966,0.18930,4.01230,NAN,NAN,5.70000
650,0x000E,1,FALSE,33.78211,0.13570,0.18930,4.00490,NAN,NAN,5.30000
870,0x000E,1,FALSE,45.16530,0.18125,0.18930,3.99860,NAN,NAN,5.50000
1090,0x000E,1,FALSE,56.65017,0.22714,0.18930,3.99320,NAN,NAN,5.60000
1310,0x000E,1,FALSE,68.02631,0.27253,0.18930,3.98680,NAN,NAN,5.40000
1530,0x000E,1,FALSE,79.50853,0.31827,0.18930,3.98100,NAN,NAN,5.60000
1750,0x000E,1,FALSE,90.88922,0.36354,0.18930,3.97590,NAN,NAN,5.40000
1970,0x000E,1,FALSE,102.374,0.40917,0.18930,3.96970,NAN,NAN,5.40000
2190,0x000E,1,FALSE,113.756,0.45431,0.18930,3.96420,NAN,NAN,5.60000
2410,0x000E,1,FALSE,125.24,0.49981,0.18930,3.95940,NAN,NAN,5.20000
2630,0x000E,1,FALSE,136.617,0.54482,0.18930,3.95370,NAN,NAN,5.40000
2850,0x000E,1,FALSE,148.05,0.58999,0.18930,3.94870,NAN,NAN,5.60000
3070,0x000E,1,FALSE,159.534,0.63531,0.18930,3.94420,NAN,NAN,5.00000
3290,0x000E,1,FALSE,170.913,0.68015,0.18930,3.93900,NAN,NAN,5.30000
3510,0x000E,1,FALSE,182.395,0.72535,0.18930,3.93450,NAN,NAN,5.60000
3730,0x000E,1,FALSE,193.776,0.77011,0.18930,3.93040,NAN,NAN,4.90000
3950,0x000E,1,FALSE,205.259,0.81520,0.18930,3.92540,NAN,NAN,5.30000
4170,0x000E,1,FALSE,216.642,0.85986,0.18930,3.92120,NAN,NAN,5.60000
4390,0x000E,1,FALSE,228.125,0.90486,0.18930,3.91730,NAN,NAN,4.90000
4610,0x000E,1,FALSE,239.505,0.94941,0.18930,3.91250,NAN,NAN,5.30000
4830,0x000E,1,FALSE,250.989,0.99432,0.18930,3.90850,NAN,NAN,5.70000
5050,0x000E,1,FALSE,262.368,1.03877,0.18930,3.90450,NAN,NAN,4.90000
5270,0x000E,1,FALSE,273.797,1.08336,0.18930,3.89990,NAN,NAN,5.30000
5490,0x000E,1,FALSE,285.28,1.12811,0.18930,3.89590,NAN,NAN,5.80000
5710,0x000E,1,FALSE,296.657,1.17242,0.18930,3.89170,NAN,NAN,5.00000
5930,0x000E,1,FALSE,308.137,1.21706,0.18930,3.88710,NAN,NAN,5.40000
6150,0x000E,1,FALSE,319.516,1.26127,0.18930,3.88320,NAN,NAN,5.80000
6370,0x000E,1,FALSE,331.001,1.30584,0.18930,3.87880,NAN,NAN,5.20000
6590,0x000E,1,FALSE,342.383,1.34996,0.18930,3.87420,NAN,NAN,5.40000
6810,0x000E,1,FALSE,353.87,1.39443,0.18930,3.87020,NAN,NAN,5.80000
7030,0x000E,1,FALSE,365.256,1.43847,0.18930,3.86560,NAN,NAN,5.20000
7250,0x000E,1,FALSE,376.743,1.48285,0.18930,3.86080,NAN,NAN,5.50000
7470,0x000E,1,FALSE,388.127,1.52677,0.18930,3.85680,NAN,NAN,5.90000
7690,0x000E,1,FALSE,399.562,1.57085,0.18930,3.85180,NAN,NAN,5.30000
7910,0x000E,1,FALSE,411.049,1.61506,0.18930,3.84690,NAN,NAN,5.50000
8130,0x000E,1,FALSE,422.431,1.65882,0.18930,3.84260,NAN,NAN,5.90000
8350,0x000E,1,FALSE,433.916,1.70292,0.18930,3.83750,NAN,NAN,5.30000
8570,0x000E,1,FALSE,445.3,1.74657,0.18930,3.83230,NAN,NAN,5.50000
8790,0x000E,1,FALSE,456.787,1.79056,0.18930,3.82780,NAN,NAN,5.90000
9010,0x000E,1,FALSE,468.171,1.83411,0.18930,3.82250,NAN,NAN,5.30000
9230,0x000E,1,FALSE,479.658,1.87798,0.18930,3.81740,NAN,NAN,5.50000
9450,0x000E,1,FALSE,491.038,1.92140,0.18930,3.81320,NAN,NAN,5.90000
9670,0x000E,1,FALSE,502.524,1.96517,0.18930,3.80820,NAN,NAN,5.30000
9890,0x000E,1,FALSE,513.904,2.00847,0.18930,3.80360,NAN,NAN,5.50000
10110,0x000E,1,FALSE,525.332,2.05192,0.18930,3.80000,NAN,NAN,5.90000
10330,0x000E,1,FALSE,536.812,2.09551,0.18930,3.79570,NAN,NAN,5.40000
10550,0x000E,1,FALSE,548.19,2.13868,0.18930,3.79180,NAN,NAN,5.50000
10770,0x000E,1,FALSE,559.672,2.18219,0.18930,3.78880,NAN,NAN,5.90000
10990,0x000E,1,FALSE,571.047,2.22527,0.18930,3.78520,NAN,NAN,5.40000
11210,0x000E,1,FALSE,582.524,2.26869,0.18930,3.78190,NAN,NAN,5.50000
11430,0x000E,1,FALSE,593.903,2.31170,0.18930,3.77960,NAN,NAN,6.00000
11650,0x000E,1,FALSE,605.388,2.35509,0.18930,3.77620,NAN,NAN,5.30000
11870,0x000E,1,FALSE,616.765,2.39803,0.18930,3.77340,NAN,NAN,5.50000
12090,0x000E,1,FALSE,628.247,2.44135,0.18930,3.77140,NAN,NAN,5.90000
12310,0x000E,1,FALSE,639.627,2.48424,0.18930,3.76850,NAN,NAN,5.30000
12530,0x000E,1,FALSE,651.06,2.52731,0.18930,3.76600,NAN,NAN,5.50000
12750,0x000E,1,FALSE,662.544,2.57055,0.18930,3.76430,NAN,NAN,5.90000
12970,0x000E,1,FALSE,673.926,2.61337,0.18930,3.76150,NAN,NAN,5.30000
13190,0x000E,1,FALSE,685.41,2.65655,0.18930,3.75920,NAN,NAN,5.50000
13410,0x000E,1,FALSE,696.788,2.69931,0.18930,3.75770,NAN,NAN,5.90000
13630,0x000E,1,FALSE,708.273,2.74245,0.18930,3.75520,NAN,NAN,5.30000
13850,0x000E,1,FALSE,719.653,2.78517,0.18930,3.75300,NAN,NAN,5.50000
14070,0x000E,1,FALSE,731.138,2.82826,0.18930,3.75170,NAN,NAN,5.90000
14290,0x000E,1,FALSE,742.521,2.87096,0.18930,3.74930,NAN,NAN,5.30000
14510,0x000E,1,FALSE,754.009,2.91401,0.18930,3.74740,NAN,NAN,5.50000
14730,0x000E,1,FALSE,765.396,2.95668,0.18930,3.74620,NAN,NAN,5.90000
14950,0x000E,1,FALSE,776.833,2.99950,0.18930,3.74390,NAN,NAN,5.40000
15170,0x000E,1,FALSE,788.317,3.04248,0.18930,3.74210,NAN,NAN,5.50000
15390,0x000E,1,FALSE,799.698,3.08506,0.18930,3.74110,NAN,NAN,5.90000
15610,0x000E,1,FALSE,811.184,3.12802,0.18930,3.73890,NAN,NAN,5.40000
15830,0x000E,1,FALSE,822.566,3.17056,0.18930,3.73730,NAN,NAN,5.50000
16050,0x000E,1,FALSE,834.054,3.21349,0.18930,3.73640,NAN,NAN,5.90000
16270,0x000E,1,FALSE,845.436,3.25600,0.18930,3.73450,NAN,NAN,5.40000
16490,0x000E,1,FALSE,856.925,3.29889,0.18930,3.73300,NAN,NAN,5.50000
16710,0x000E,1,FALSE,868.307,3.34138,0.18930,3.73230,NAN,NAN,5.90000
16930,0x000E,1,FALSE,879.791,3.38422,0.18930,3.73040,NAN,NAN,5.40000
17150,0x000E,1,FALSE,891.173,3.42667,0.18930,3.72910,NAN,NAN,5.50000
17370,0x000E,1,FALSE,902.606,3.46930,0.18930,3.72860,NAN,NAN,5.90000
17590,0x000E,1,FALSE,914.091,3.51211,0.18930,3.72690,NAN,NAN,5.40000
17810,0x000E,1,FALSE,925.474,3.55452,0.18930,3.72560,NAN,NAN,5.50000
18030,0x000E,1,FALSE,936.961,3.59731,0.18930,3.72520,NAN,NAN,6.00000
18250,0x000E,1,FALSE,948.343,3.63970,0.18930,3.72360,NAN,NAN,5.40000
18470,0x000E,1,FALSE,959.831,3.68247,0.18930,3.72240,NAN,NAN,5.60000
18690,0x000E,1,FALSE,971.212,3.72483,0.18930,3.72190,NAN,NAN,6.00000
18910,0x000E,1,FALSE,982.7,3.76757,0.18930,3.72040,NAN,NAN,5.50000
19130,0x000E,1,FALSE,994.087,3.80993,0.18930,3.71910,NAN,NAN,5.50000
19350,0x000E,1,FALSE,1005.58,3.85265,0.18930,3.71850,NAN,NAN,6.00000
[...]
21990,0x000E,1,FALSE,1142.73,4.36147,0.18930,3.70020,NAN,NAN,5.90000
22210,0x000E,1,FALSE,1154.22,4.40396,0.18930,3.69820,NAN,NAN,5.10000
22430,0x000E,1,FALSE,1165.6,4.44602,0.18930,3.69570,NAN,NAN,5.60000
22650,0x000E,1,FALSE,1177.03,4.48825,0.18930,3.69360,NAN,NAN,5.90000
22870,0x000E,1,FALSE,1188.51,4.53064,0.18930,3.69110,NAN,NAN,5.20000
23090,0x000E,1,FALSE,1199.89,4.57262,0.18930,3.68800,NAN,NAN,5.60000
23310,0x000E,1,FALSE,1211.37,4.61494,0.18930,3.68530,NAN,NAN,5.90000
23530,0x000E,1,FALSE,1222.75,4.65686,0.18930,3.68230,NAN,NAN,5.10000
23750,0x000E,1,FALSE,1234.23,4.69912,0.18930,3.67860,NAN,NAN,5.60000
23970,0x000E,1,FALSE,1245.61,4.74095,0.18930,3.67500,NAN,NAN,5.90000
24190,0x000E,1,FALSE,1257.09,4.78314,0.18930,3.67140,NAN,NAN,5.20000
24410,0x000E,1,FALSE,1268.47,4.82489,0.18930,3.66680,NAN,NAN,5.70000
24630,0x000E,1,FALSE,1279.96,4.86697,0.18930,3.66220,NAN,NAN,5.90000
24850,0x000E,1,FALSE,1291.34,4.90863,0.18930,3.65810,NAN,NAN,5.50000
25070,0x000E,1,FALSE,1302.77,4.95042,0.18930,3.65250,NAN,NAN,5.80000
25290,0x000E,1,FALSE,1314.26,4.99233,0.18930,3.64700,NAN,NAN,5.90000
25510,0x000E,1,FALSE,1325.64,5.03381,0.18930,3.64190,NAN,NAN,5.70000
25730,0x000E,1,FALSE,1337.12,5.07559,0.18930,3.63500,NAN,NAN,5.80000
25950,0x000E,1,FALSE,1348.5,5.11691,0.18930,3.62890,NAN,NAN,5.90000
26170,0x000E,1,FALSE,1359.99,5.15856,0.18930,3.62470,NAN,NAN,5.90000
26390,0x000E,1,FALSE,1371.37,5.19977,0.18930,3.62000,NAN,NAN,5.80000
26610,0x000E,1,FALSE,1382.85,5.24133,0.18930,3.61650,NAN,NAN,5.80000
26830,0x000E,1,FALSE,1394.23,5.28247,0.18930,3.61420,NAN,NAN,6.10000
27050,0x000E,1,FALSE,1405.72,5.32395,0.18930,3.61010,NAN,NAN,5.70000
27270,0x000E,1,FALSE,1417.09,5.36500,0.18930,3.60650,NAN,NAN,5.80000
27490,0x000E,1,FALSE,1428.53,5.40621,0.18930,3.60360,NAN,NAN,6.20000
27710,0x000E,1,FALSE,1440.01,5.44757,0.18930,3.59860,NAN,NAN,5.70000
27930,0x000E,1,FALSE,1451.39,5.48849,0.18930,3.59350,NAN,NAN,5.70000
28150,0x000E,1,FALSE,1462.88,5.52973,0.18930,3.58880,NAN,NAN,6.20000
28370,0x000E,1,FALSE,1474.26,5.57054,0.18930,3.58190,NAN,NAN,5.60000
28590,0x000E,1,FALSE,1485.74,5.61163,0.18930,3.57390,NAN,NAN,5.70000
28810,0x000E,1,FALSE,1497.12,5.65225,0.18930,3.56550,NAN,NAN,6.20000
29030,0x000E,1,FALSE,1508.61,5.69314,0.18930,3.55340,NAN,NAN,5.60000
29250,0x000E,1,FALSE,1519.99,5.73350,0.18930,3.53810,NAN,NAN,5.70000
29470,0x000E,1,FALSE,1531.48,5.77402,0.18930,3.51900,NAN,NAN,6.10000
29690,0x000E,1,FALSE,1542.86,5.81394,0.18930,3.49240,NAN,NAN,5.50000
29910,0x000E,1,FALSE,1554.3,5.85367,0.18930,3.45590,NAN,NAN,5.80000
30130,0x000E,1,FALSE,1565.78,5.89310,0.18930,3.40830,NAN,NAN,6.20000
30350,0x000E,1,FALSE,1577.16,5.93156,0.18930,3.34540,NAN,NAN,5.40000
30570,0x000E,1,FALSE,1588.65,5.96951,0.18930,3.25860,NAN,NAN,6.00000
30790,0x000E,1,FALSE,1600.03,6.00593,0.18930,3.13440,NAN,NAN,6.30000
31010,0x000E,1,FALSE,1611.52,6.04081,0.18930,2.90070,NAN,NAN,5.70000
31082,0x000E,1,FALSE,1615.21,4.34628,0.18940,2.74990,NAN,NAN,6.00000

[DISCHARGE RESULT]
LoRange,FALSE
FinishedBy,1(Cut Voltage)
OpenVolt[V],4.06350
OpenCurr[A],0.00010
OpenTemp[°C],5.20000
StartVolt[V],4.04460
StartCurr[A],0.18930
StartTemp[°C],5.20000
CutoffVolt[V],2.74990
CutoffCurr[A],0.18940
CutoffTemp[°C],6.00000
TimeElapsed[s],31082
Power[Wh],4.34628
StartPulseA[V],NAN
CurrPulseA[V],NAN
StartPulseB[V],NAN
CurrPulseB[V],NAN
TempSet[°C],OFF
TempMon[°C],OFF
HumidSet[%],OFF
HumidMon[%],OFF

[LIFE]
CycleNo,2
Action,Discharge
Start,2021/03/04,22:56:44
End,2021/03/05,7:34:49
Capacity[mAh],1138.62

[IMPEDANCE],AfterCharge,AfterRest
Range,0,0
AutoRange,FALSE,FALSE
Resistance[ohm],NAN,NAN
Reactance[ohm],NAN,NAN

File: temp7.CSV
[TEST CONDITION]
CondName,バッテリ温度特性試験20210227
ModelID,21
Average,0
CheckDut,FALSE
AutoFine,FALSE
DateTime,2021/02/27,21:40:39
Operator,米山まうむ
Notes,運用に向けてバッテリの温度特性を測定する
運用時の消費電流を鑑み，0.1C放電で行う
なおこんなに運用直前にやることではないので，次期プロジェクトの人間はもっと早い段階で行うことをお勧めする
BatteryName,UF103450P
NominalCapacity[mAh],1800.0
NominalVoltage[V],3.70000
Volume[ml],0.10
Weight[g],38.30
SoftOvp[V],4.40000
SoftUvp[V],2.50000
SoftOah[%],110
SoftOtp[°C],60.00000
DeltaT[s],10.00000
DeltaV[V],0.10000
DeltaI[A],0.10000
ImpRange[ohm],0
Frequency[Hz],1000
AutoRange,FALSE
AfterCharge,FALSE
AfterChargeRest,FALSE
AfterDischarge,FALSE
AfterDischargeRest,FALSE
CapacityRate_C[%],OFF
CapacityRate_D[%],OFF
Impedance_C[ohm],OFF
Impedance_D[ohm],OFF
SeqInfoName,

[CHARGE SHEET]
SheetNo,2
Range,HIGH
Mode,CC-CV
ChargeTime[s],0
RestTime[s],0
Current[A],0.00000
CvVolt[V],0.00000
CvTime[s],0
ItCurrent[A],OFF
ItTime[s],OFF

[DISCHARGE SHEET]
SheetNo,2
Range,HIGH
Mode,CC
DischargeTime[s],43200
RestTime[s],0
Current[A],0.18800
CapacityVolt[V],3.70000
CutoffVolt[V],2.75000

[DISCHARGE MONITOR]
TimeElapsed[s],StdState,OpnState,LowRange,Capacity[mAh],Power[Wh],Curr[A],Volt[V],VoltHi[V],VoltLo[V],Temp[°C],TermState,CellVolt[V],CellVoltHi[V],CellVoltLo[V],CellTemp[°C],(continued)
0,0x000E,0,FALSE,0.00000,0.00000,0.00000,4.08390,NAN,NAN,6.90000
210,0x000E,1,FALSE,10.43094,0.04211,0.18930,4.03040,NAN,NAN,7.10000
430,0x000E,1,FALSE,21.42117,0.08636,0.18930,4.02270,NAN,NAN,7.70000
650,0x000E,1,FALSE,32.45767,0.13072,0.18930,4.01590,NAN,NAN,7.10000
870,0x000E,1,FALSE,43.39819,0.17462,0.18920,4.00970,NAN,NAN,7.20000
1090,0x000E,1,FALSE,54.43889,0.21885,0.18920,4.00440,NAN,NAN,7.80000
1310,0x000E,1,FALSE,65.37989,0.26263,0.18930,3.99860,NAN,NAN,7.20000
1530,0x000E,1,FALSE,76.41901,0.30674,0.18930,3.99280,NAN,NAN,7.30000
1750,0x000E,1,FALSE,87.36086,0.35039,0.18930,3.98770,NAN,NAN,7.90000
1970,0x000E,1,FALSE,98.39828,0.39437,0.18920,3.98180,NAN,NAN,7.30000
2190,0x000E,1,FALSE,109.334,0.43788,0.18930,3.97620,NAN,NAN,7.40000
2410,0x000E,1,FALSE,120.367,0.48172,0.18930,3.97140,NAN,NAN,7.80000
2630,0x000E,1,FALSE,131.3,0.52511,0.18930,3.96580,NAN,NAN,7.20000
2850,0x000E,1,FALSE,142.283,0.56863,0.18930,3.96050,NAN,NAN,7.40000
3070,0x000E,1,FALSE,153.318,0.61231,0.18930,3.95610,NAN,NAN,7.70000
3290,0x000E,1,FALSE,164.255,0.65555,0.18930,3.95090,NAN,NAN,7.20000
3510,0x000E,1,FALSE,175.289,0.69911,0.18930,3.94610,NAN,NAN,7.40000
3730,0x000E,1,FALSE,186.22,0.74222,0.18930,3.94220,NAN,NAN,7.60000
3950,0x000E,1,FALSE,197.252,0.78568,0.18930,3.93730,NAN,NAN,7.20000
4170,0x000E,1,FALSE,208.182,0.82869,0.18930,3.93290,NAN,NAN,7.40000
4390,0x000E,1,FALSE,219.213,0.87205,0.18930,3.92920,NAN,NAN,7.50000
4610,0x000E,1,FALSE,230.142,0.91496,0.18930,3.92450,NAN,NAN,7.30000
4830,0x000E,1,FALSE,241.167,0.95820,0.18930,3.92020,NAN,NAN,7.50000
5050,0x000E,1,FALSE,252.094,1.00102,0.18930,3.91670,NAN,NAN,7.30000
5270,0x000E,1,FALSE,263.071,1.04398,0.18930,3.91200,NAN,NAN,7.30000
5490,0x000E,1,FALSE,274.095,1.08708,0.18930,3.90780,NAN,NAN,7.50000
5710,0x000E,1,FALSE,285.02,1.12975,0.18930,3.90430,NAN,NAN,7.30000
5930,0x000E,1,FALSE,296.046,1.17277,0.18930,3.89950,NAN,NAN,7.40000
6150,0x000E,1,FALSE,306.981,1.21538,0.18930,3.89530,NAN,NAN,7.60000
6370,0x000E,1,FALSE,318.013,1.25833,0.18930,3.89170,NAN,NAN,7.10000
6590,0x000E,1,FALSE,328.944,1.30084,0.18930,3.88700,NAN,NAN,7.40000
6810,0x000E,1,FALSE,339.975,1.34369,0.18930,3.88270,NAN,NAN,7.60000
7030,0x000E,1,FALSE,350.91,1.38613,0.18930,3.87890,NAN,NAN,7.10000
7250,0x000E,1,FALSE,361.942,1.42889,0.18930,3.87410,NAN,NAN,7.40000
7470,0x000E,1,FALSE,372.879,1.47123,0.18930,3.86970,NAN,NAN,7.60000
7690,0x000E,1,FALSE,383.868,1.51373,0.18920,3.86580,NAN,NAN,7.20000
7910,0x000E,1,FALSE,394.903,1.55636,0.18920,3.86070,NAN,NAN,7.40000
8130,0x000E,1,FALSE,405.835,1.59854,0.18920,3.85600,NAN,NAN,7.60000
8350,0x000E,1,FALSE,416.868,1.64105,0.18930,3.85180,NAN,NAN,7.10000
8570,0x000E,1,FALSE,427.805,1.68315,0.18920,3.84650,NAN,NAN,7.40000
8790,0x000E,1,FALSE,438.841,1.72557,0.18930,3.84150,NAN,NAN,7.60000
9010,0x000E,1,FALSE,449.777,1.76755,0.18920,3.83690,NAN,NAN,7.10000
9230,0x000E,1,FALSE,460.814,1.80986,0.18930,3.83130,NAN,NAN,7.30000
9450,0x000E,1,FALSE,471.75,1.85173,0.18930,3.82620,NAN,NAN,7.70000
9670,0x000E,1,FALSE,482.783,1.89392,0.18930,3.82160,NAN,NAN,7.10000
9890,0x000E,1,FALSE,493.713,1.93566,0.18930,3.81630,NAN,NAN,7.30000
10110,0x000E,1,FALSE,504.693,1.97753,0.18920,3.81170,NAN,NAN,7.70000
10330,0x000E,1,FALSE,515.723,2.01955,0.18920,3.80750,NAN,NAN,7.00000
10550,0x000E,1,FALSE,526.654,2.06114,0.18930,3.80300,NAN,NAN,7.30000
10770,0x000E,1,FALSE,537.685,2.10306,0.18930,3.79920,NAN,NAN,7.70000
10990,0x000E,1,FALSE,548.614,2.14457,0.18930,3.79580,NAN,NAN,6.90000
11210,0x000E,1,FALSE,559.644,2.18641,0.18930,3.79210,NAN,NAN,7.30000
11430,0x000E,1,FALSE,570.58,2.22786,0.18930,3.78900,NAN,NAN,7.70000
11650,0x000E,1,FALSE,581.615,2.26965,0.18930,3.78630,NAN,NAN,6.90000
11870,0x000E,1,FALSE,592.546,2.31102,0.18930,3.78310,NAN,NAN,7.30000
12090,0x000E,1,FALSE,603.575,2.35272,0.18930,3.78050,NAN,NAN,7.70000
12310,0x000E,1,FALSE,614.51,2.39405,0.18920,3.77810,NAN,NAN,6.80000
12530,0x000E,1,FALSE,625.495,2.43553,0.18930,3.77530,NAN,NAN,7.20000
12750,0x000E,1,FALSE,636.524,2.47715,0.18930,3.77300,NAN,NAN,7.70000
12970,0x000E,1,FALSE,647.458,2.51839,0.18930,3.77080,NAN,NAN,6.90000
13190,0x000E,1,FALSE,658.491,2.55998,0.18930,3.76830,NAN,NAN,7.20000
13410,0x000E,1,FALSE,669.421,2.60115,0.18930,3.76620,NAN,NAN,7.70000
13630,0x000E,1,FALSE,680.449,2.64267,0.18920,3.76420,NAN,NAN,6.90000
13850,0x000E,1,FALSE,691.379,2.68380,0.18930,3.76190,NAN,NAN,7.20000
14070,0x000E,1,FALSE,702.407,2.72527,0.18930,3.76010,NAN,NAN,7.70000
14290,0x000E,1,FALSE,713.334,2.76635,0.18930,3.75820,NAN,NAN,6.90000
14510,0x000E,1,FALSE,724.363,2.80778,0.18930,3.75590,NAN,NAN,7.20000
14730,0x000E,1,FALSE,735.292,2.84882,0.18930,3.75430,NAN,NAN,7.70000
14950,0x000E,1,FALSE,746.269,2.89001,0.18930,3.75250,NAN,NAN,7.00000
15170,0x000E,1,FALSE,757.297,2.93138,0.18930,3.75050,NAN,NAN,7.30000
15390,0x000E,1,FALSE,768.223,2.97235,0.18930,3.74910,NAN,NAN,7.80000
15610,0x000E,1,FALSE,779.253,3.01369,0.18930,3.74730,NAN,NAN,7.10000
15830,0x000E,1,FALSE,790.181,3.05463,0.18930,3.74540,NAN,NAN,7.30000
16050,0x000E,1,FALSE,801.21,3.09592,0.18930,3.74410,NAN,NAN,7.80000
16270,0x000E,1,FALSE,812.139,3.13683,0.18930,3.74250,NAN,NAN,7.10000
16490,0x000E,1,FALSE,823.167,3.17809,0.18930,3.74080,NAN,NAN,7.30000
16710,0x000E,1,FALSE,834.098,3.21897,0.18920,3.73970,NAN,NAN,7.80000
16930,0x000E,1,FALSE,845.136,3.26024,0.18930,3.73820,NAN,NAN,7.10000
17150,0x000E,1,FALSE,856.071,3.30111,0.18930,3.73670,NAN,NAN,7.30000
17370,0x000E,1,FALSE,867.062,3.34217,0.18930,3.73570,NAN,NAN,7.80000
17590,0x000E,1,FALSE,878.097,3.38338,0.18930,3.73430,NAN,NAN,7.10000
17810,0x000E,1,FALSE,889.032,3.42421,0.18930,3.73290,NAN,NAN,7.30000
18030,0x000E,1,FALSE,900.065,3.46538,0.18930,3.73210,NAN,NAN,7.80000
18250,0x000E,1,FALSE,910.995,3.50617,0.18920,3.73090,NAN,NAN,7.20000
18470,0x000E,1,FALSE,922.027,3.54732,0.18930,3.72960,NAN,NAN,7.30000
18690,0x000E,1,FALSE,932.957,3.58807,0.18930,3.72880,NAN,NAN,7.80000
18910,0x000E,1,FALSE,943.99,3.62921,0.18930,3.72770,NAN,NAN,7.20000
19130,0x000E,1,FALSE,954.92,3.66994,0.18930,3.72650,NAN,NAN,7.30000
19350,0x000E,1,FALSE,965.954,3.71105,0.18930,3.72570,NAN,NAN,7.80000
[...]
22210,0x000E,1,FALSE,1108.75,4.24193,0.18930,3.70870,NAN,NAN,7.30000
22430,0x000E,1,FALSE,1119.69,4.28249,0.18930,3.70660,NAN,NAN,7.40000
22650,0x000E,1,FALSE,1130.68,4.32322,0.18930,3.70490,NAN,NAN,7.90000
22870,0x000E,1,FALSE,1141.72,4.36409,0.18930,3.70270,NAN,NAN,7.20000
23090,0x000E,1,FALSE,1152.66,4.40456,0.18930,3.70020,NAN,NAN,7.50000
23310,0x000E,1,FALSE,1163.69,4.44538,0.18930,3.69800,NAN,NAN,8.00000
23530,0x000E,1,FALSE,1174.63,4.48582,0.18930,3.69520,NAN,NAN,7.30000
23750,0x000E,1,FALSE,1185.67,4.52659,0.18930,3.69220,NAN,NAN,7.50000
23970,0x000E,1,FALSE,1196.61,4.56695,0.18930,3.68940,NAN,NAN,8.00000
24190,0x000E,1,FALSE,1207.64,4.60764,0.18920,3.68600,NAN,NAN,7.40000
24410,0x000E,1,FALSE,1218.58,4.64793,0.18930,3.68210,NAN,NAN,7.50000
24630,0x000E,1,FALSE,1229.61,4.68854,0.18930,3.67840,NAN,NAN,8.00000
24850,0x000E,1,FALSE,1240.55,4.72874,0.18920,3.67400,NAN,NAN,7.40000
25070,0x000E,1,FALSE,1251.53,4.76907,0.18930,3.66920,NAN,NAN,7.50000
25290,0x000E,1,FALSE,1262.56,4.80951,0.18930,3.66480,NAN,NAN,8.00000
25510,0x000E,1,FALSE,1273.5,4.84956,0.18930,3.65960,NAN,NAN,7.40000
25730,0x000E,1,FALSE,1284.53,4.88989,0.18930,3.65380,NAN,NAN,7.50000
25950,0x000E,1,FALSE,1295.46,4.92981,0.18930,3.64820,NAN,NAN,8.00000
26170,0x000E,1,FALSE,1306.5,4.97004,0.18930,3.64170,NAN,NAN,7.40000
26390,0x000E,1,FALSE,1317.44,5.00983,0.18930,3.63590,NAN,NAN,7.50000
26610,0x000E,1,FALSE,1328.47,5.04992,0.18930,3.63220,NAN,NAN,8.10000
26830,0x000E,1,FALSE,1339.41,5.08962,0.18930,3.62890,NAN,NAN,7.40000
27050,0x000E,1,FALSE,1350.44,5.12963,0.18930,3.62590,NAN,NAN,7.50000
27270,0x000E,1,FALSE,1361.37,5.16927,0.18930,3.62360,NAN,NAN,8.10000
27490,0x000E,1,FALSE,1372.35,5.20904,0.18930,3.62050,NAN,NAN,7.50000
27710,0x000E,1,FALSE,1383.39,5.24897,0.18930,3.61710,NAN,NAN,7.60000
27930,0x000E,1,FALSE,1394.33,5.28852,0.18920,3.61430,NAN,NAN,8.10000
28150,0x000E,1,FALSE,1405.37,5.32839,0.18920,3.61020,NAN,NAN,7.50000
28370,0x000E,1,FALSE,1416.3,5.36783,0.18930,3.60550,NAN,NAN,7.60000
28590,0x000E,1,FALSE,1427.33,5.40757,0.18930,3.60100,NAN,NAN,8.10000
28810,0x000E,1,FALSE,1438.26,5.44689,0.18930,3.59470,NAN,NAN,7.50000
29030,0x000E,1,FALSE,1449.29,5.48650,0.18930,3.58690,NAN,NAN,7.60000
29250,0x000E,1,FALSE,1460.23,5.52569,0.18930,3.57850,NAN,NAN,8.10000
29470,0x000E,1,FALSE,1471.27,5.56514,0.18930,3.56610,NAN,NAN,7.50000
29690,0x000E,1,FALSE,1482.21,5.60407,0.18930,3.54930,NAN,NAN,7.60000
29910,0x000E,1,FALSE,1493.2,5.64297,0.18930,3.52730,NAN,NAN,8.10000
30130,0x000E,1,FALSE,1504.25,5.68176,0.18930,3.49450,NAN,NAN,7.60000
30350,0x000E,1,FALSE,1515.19,5.71976,0.18930,3.44970,NAN,NAN,7.70000
30570,0x000E,1,FALSE,1526.24,5.75755,0.18930,3.39250,NAN,NAN,8.20000
30790,0x000E,1,FALSE,1537.18,5.79427,0.18930,3.31610,NAN,NAN,7.70000
31010,0x000E,1,FALSE,1548.22,5.83033,0.18930,3.21040,NAN,NAN,7.80000
31230,0x000E,1,FALSE,1559.16,5.86464,0.18930,3.04290,NAN,NAN,8.40000
31390,0x000E,1,FALSE,1567.16,4.39440,0.18930,2.74990,NAN,NAN,7.70000

[DISCHARGE RESULT]
LoRange,FALSE
FinishedBy,1(Cut Voltage)
OpenVolt[V],4.05970
OpenCurr[A],0.00010
OpenTemp[°C],7.00000
StartVolt[V],4.05350
StartCurr[A],0.18920
StartTemp[°C],7.00000
CutoffVolt[V],2.74990
CutoffCurr[A],0.18930
CutoffTemp[°C],7.70000
TimeElapsed[s],31390
Power[Wh],4.39440
StartPulseA[V],NAN
CurrPulseA[V],NAN
StartPulseB[V],NAN
CurrPulseB[V],NAN
TempSet[°C],OFF
TempMon[°C],OFF
HumidSet[%],OFF
HumidMon[%],OFF

[LIFE]
CycleNo,2
Action,Discharge
Start,2021/03/05,18:29:52
End,2021/03/06,3:13:05
Capacity[mAh],1149.91

[IMPEDANCE],AfterCharge,AfterRest
Range,0,0
AutoRange,FALSE,FALSE
Resistance[ohm],NAN,NAN
Reactance[ohm],NAN,NAN