Folder: BatteryTemperatureCharacteristics/csvFiles/20210227

File: temp0.CSV
[TEST CONDITION]
CondName,バッテリ温度特性試験20210227
ModelID,21
Average,0
CheckDut,FALSE
AutoFine,FALSE
DateTime,2021/02/27,21:40:39
Operator,米山まうむ
Notes,運用に向けてバッテリの温度特性を測定する
運用時の消費電流を鑑み，0.1C放電で行う
なおこんなに運用直前にやることではないので，次期プロジェクトの人間はもっと早い段階で行うことをお勧めする
BatteryName,UF103450P
NominalCapacity[mAh],1800.0
NominalVoltage[V],3.70000
Volume[ml],0.10
Weight[g],38.30
SoftOvp[V],4.40000
SoftUvp[V],2.50000
SoftOah[%],110
SoftOtp[°C],60.00000
DeltaT[s],10.00000
DeltaV[V],0.10000
DeltaI[A],0.10000
ImpRange[ohm],0
Frequency[Hz],1000
AutoRange,FALSE
AfterCharge,FALSE
AfterChargeRest,FALSE
AfterDischarge,FALSE
AfterDischargeRest,FALSE
CapacityRate_C[%],OFF
CapacityRate_D[%],OFF
Impedance_C[ohm],OFF
Impedance_D[ohm],OFF
SeqInfoName,

[CHARGE SHEET]
SheetNo,2
Range,HIGH
Mode,CC-CV
ChargeTime[s],0
RestTime[s],0
Current[A],0.00000
CvVolt[V],0.00000
CvTime[s],0
ItCurrent[A],OFF
ItTime[s],OFF

[DISCHARGE SHEET]
SheetNo,2
Range,HIGH
Mode,CC
DischargeTime[s],43200
RestTime[s],0
Current[A],0.18800
CapacityVolt[V],3.70000
CutoffVolt[V],2.75000

[DISCHARGE MONITOR]
TimeElapsed[s],StdState,OpnState,LowRange,Capacity[mAh],Power[Wh],Curr[A],Volt[V],VoltHi[V],VoltLo[V],Temp[°C],TermState,CellVolt[V],CellVoltHi[V],CellVoltLo[V],CellTemp[°C],(continued)
0,0x000E,0,FALSE,0.00000,0.00000,0.00000,4.04920,NAN,NAN,-0.30000
200,0x000E,1,FALSE,10.38103,0.04137,0.18930,3.97620,NAN,NAN,0.20000
410,0x000E,1,FALSE,21.23056,0.08445,0.18930,3.96690,NAN,NAN,-0.80000
620,0x000E,1,FALSE,32.18222,0.12785,0.18930,3.95910,NAN,NAN,0.00000
830,0x000E,1,FALSE,43.08158,0.17097,0.18930,3.95350,NAN,NAN,0.30000
1040,0x000E,1,FALSE,53.92761,0.21380,0.18930,3.94650,NAN,NAN,0.00000
1250,0x000E,1,FALSE,64.87747,0.25698,0.18930,3.94100,NAN,NAN,0.30000
1460,0x000E,1,FALSE,75.77636,0.29990,0.18930,3.93530,NAN,NAN,-0.50000
1670,0x000E,1,FALSE,86.62561,0.34257,0.18930,3.92980,NAN,NAN,0.00000
1880,0x000E,1,FALSE,97.58039,0.38559,0.18930,3.92570,NAN,NAN,0.10000
2090,0x000E,1,FALSE,108.431,0.42815,0.18940,3.91990,NAN,NAN,0.00000
2300,0x000E,1,FALSE,119.334,0.47086,0.18940,3.91570,NAN,NAN,0.40000
2510,0x000E,1,FALSE,130.286,0.51372,0.18930,3.91070,NAN,NAN,-0.30000
2720,0x000E,1,FALSE,141.135,0.55612,0.18940,3.90610,NAN,NAN,0.10000
2930,0x000E,1,FALSE,152.036,0.59867,0.18930,3.90260,NAN,NAN,-0.30000
3140,0x000E,1,FALSE,162.99,0.64139,0.18930,3.89740,NAN,NAN,0.10000
3350,0x000E,1,FALSE,173.84,0.68365,0.18940,3.89370,NAN,NAN,0.50000
3560,0x000E,1,FALSE,184.742,0.72608,0.18930,3.88890,NAN,NAN,-0.20000
3770,0x000E,1,FALSE,195.697,0.76865,0.18940,3.88470,NAN,NAN,0.20000
3980,0x000E,1,FALSE,206.545,0.81077,0.18930,3.88100,NAN,NAN,-0.70000
4190,0x000E,1,FALSE,217.442,0.85303,0.18940,3.87610,NAN,NAN,0.00000
4400,0x000E,1,FALSE,228.395,0.89546,0.18930,3.87280,NAN,NAN,0.50000
4610,0x000E,1,FALSE,239.245,0.93745,0.18940,3.86760,NAN,NAN,0.00000
4820,0x000E,1,FALSE,250.152,0.97961,0.18940,3.86360,NAN,NAN,0.30000
5030,0x000E,1,FALSE,261.109,1.02192,0.18930,3.85950,NAN,NAN,-0.50000
5240,0x000E,1,FALSE,271.962,1.06378,0.18940,3.85480,NAN,NAN,0.10000
5450,0x000E,1,FALSE,282.865,1.10578,0.18930,3.85150,NAN,NAN,0.30000
5660,0x000E,1,FALSE,293.818,1.14794,0.18930,3.84610,NAN,NAN,0.10000
5870,0x000E,1,FALSE,304.668,1.18964,0.18930,3.84210,NAN,NAN,0.40000
6080,0x000E,1,FALSE,315.569,1.23150,0.18930,3.83750,NAN,NAN,-0.30000
6290,0x000E,1,FALSE,326.521,1.27350,0.18930,3.83290,NAN,NAN,0.20000
6500,0x000E,1,FALSE,337.372,1.31507,0.18930,3.82940,NAN,NAN,0.00000
6710,0x000E,1,FALSE,348.324,1.35697,0.18940,3.82390,NAN,NAN,0.20000
6920,0x000E,1,FALSE,359.223,1.39862,0.18940,3.81980,NAN,NAN,0.50000
7130,0x000E,1,FALSE,370.069,1.44003,0.18940,3.81490,NAN,NAN,-0.20000
7340,0x000E,1,FALSE,381.018,1.48176,0.18940,3.81020,NAN,NAN,0.20000
7550,0x000E,1,FALSE,391.915,1.52327,0.18930,3.80650,NAN,NAN,-0.30000
7760,0x000E,1,FALSE,402.76,1.56451,0.18930,3.80120,NAN,NAN,0.20000
7970,0x000E,1,FALSE,413.712,1.60612,0.18930,3.79760,NAN,NAN,0.60000
8180,0x000E,1,FALSE,424.61,1.64747,0.18930,3.79260,NAN,NAN,0.10000
8390,0x000E,1,FALSE,435.456,1.68858,0.18930,3.78850,NAN,NAN,0.30000
8600,0x000E,1,FALSE,446.409,1.73006,0.18930,3.78490,NAN,NAN,-0.60000
8810,0x000E,1,FALSE,457.31,1.77129,0.18940,3.78050,NAN,NAN,0.20000
9020,0x000E,1,FALSE,468.159,1.81229,0.18940,3.77770,NAN,NAN,0.60000
9230,0x000E,1,FALSE,479.107,1.85361,0.18930,3.77330,NAN,NAN,0.10000
9440,0x000E,1,FALSE,489.951,1.89451,0.18930,3.77020,NAN,NAN,0.40000
9650,0x000E,1,FALSE,500.85,1.93559,0.18930,3.76720,NAN,NAN,-0.50000
9860,0x000E,1,FALSE,511.798,1.97681,0.18930,3.76370,NAN,NAN,0.20000
10070,0x000E,1,FALSE,522.642,2.01761,0.18940,3.76170,NAN,NAN,0.40000
10280,0x000E,1,FALSE,533.54,2.05858,0.18930,3.75800,NAN,NAN,0.20000
10490,0x000E,1,FALSE,544.489,2.09971,0.18930,3.75570,NAN,NAN,0.50000
10700,0x000E,1,FALSE,555.334,2.14043,0.18930,3.75300,NAN,NAN,-0.30000
10910,0x000E,1,FALSE,566.231,2.18130,0.18930,3.75030,NAN,NAN,0.20000
11120,0x000E,1,FALSE,577.181,2.22236,0.18930,3.74890,NAN,NAN,0.10000
11330,0x000E,1,FALSE,588.023,2.26298,0.18930,3.74560,NAN,NAN,0.20000
11540,0x000E,1,FALSE,598.921,2.30379,0.18940,3.74400,NAN,NAN,0.50000
11750,0x000E,1,FALSE,609.869,2.34476,0.18930,3.74140,NAN,NAN,-0.20000
11960,0x000E,1,FALSE,620.714,2.38532,0.18930,3.73930,NAN,NAN,0.20000
12170,0x000E,1,FALSE,631.608,2.42605,0.18930,3.73800,NAN,NAN,-0.30000
12380,0x000E,1,FALSE,642.552,2.46694,0.18930,3.73530,NAN,NAN,0.20000
12590,0x000E,1,FALSE,653.394,2.50742,0.18930,3.73410,NAN,NAN,0.60000
12800,0x000E,1,FALSE,664.284,2.54807,0.18930,3.73170,NAN,NAN,0.00000
13010,0x000E,1,FALSE,675.225,2.58889,0.18930,3.73000,NAN,NAN,0.30000
13220,0x000E,1,FALSE,686.065,2.62932,0.18930,3.72870,NAN,NAN,-0.60000
13430,0x000E,1,FALSE,697.008,2.67010,0.18940,3.72650,NAN,NAN,0.10000
13640,0x000E,1,FALSE,707.901,2.71069,0.18940,3.72580,NAN,NAN,0.60000
13850,0x000E,1,FALSE,718.744,2.75107,0.18940,3.72330,NAN,NAN,0.10000
14060,0x000E,1,FALSE,729.69,2.79182,0.18940,3.72210,NAN,NAN,0.40000
14270,0x000E,1,FALSE,740.584,2.83235,0.18940,3.72070,NAN,NAN,-0.40000
14480,0x000E,1,FALSE,751.429,2.87269,0.18940,3.71900,NAN,NAN,0.20000
14690,0x000E,1,FALSE,762.378,2.91340,0.18940,3.71870,NAN,NAN,0.30000
14900,0x000E,1,FALSE,773.271,2.95389,0.18940,3.71640,NAN,NAN,0.20000
15110,0x000E,1,FALSE,784.115,2.99418,0.18940,3.71550,NAN,NAN,0.50000
15320,0x000E,1,FALSE,795.06,3.03485,0.18940,3.71410,NAN,NAN,-0.20000
15530,0x000E,1,FALSE,805.953,3.07529,0.18930,3.71280,NAN,NAN,0.20000
15740,0x000E,1,FALSE,816.797,3.11555,0.18940,3.71260,NAN,NAN,0.00000
15950,0x000E,1,FALSE,827.743,3.15617,0.18930,3.71050,NAN,NAN,0.20000
16160,0x000E,1,FALSE,838.582,3.19638,0.18930,3.71000,NAN,NAN,0.60000
16370,0x000E,1,FALSE,849.474,3.23678,0.18930,3.70840,NAN,NAN,0.00000
16580,0x000E,1,FALSE,860.421,3.27737,0.18930,3.70730,NAN,NAN,0.30000
16790,0x000E,1,FALSE,871.266,3.31757,0.18930,3.70680,NAN,NAN,-0.40000
17000,0x000E,1,FALSE,882.167,3.35796,0.18940,3.70490,NAN,NAN,0.20000
17210,0x000E,1,FALSE,893.116,3.39852,0.18940,3.70460,NAN,NAN,0.70000
17420,0x000E,1,FALSE,903.962,3.43869,0.18940,3.70260,NAN,NAN,0.10000
17630,0x000E,1,FALSE,914.858,3.47903,0.18940,3.70160,NAN,NAN,0.40000
17840,0x000E,1,FALSE,925.809,3.51956,0.18940,3.70050,NAN,NAN,-0.50000
18050,0x000E,1,FALSE,936.658,3.55969,0.18930,3.69880,NAN,NAN,0.20000
18260,0x000E,1,FALSE,947.556,3.59999,0.18930,3.69840,NAN,NAN,0.60000
[...]
20990,0x000E,1,FALSE,1089.28,4.12245,0.18930,3.67280,NAN,NAN,0.20000
21200,0x000E,1,FALSE,1100.12,4.16227,0.18940,3.67020,NAN,NAN,0.50000
21410,0x000E,1,FALSE,1111.07,4.20245,0.18930,3.66780,NAN,NAN,-0.40000
21620,0x000E,1,FALSE,1121.97,4.24240,0.18930,3.66410,NAN,NAN,0.30000
21830,0x000E,1,FALSE,1132.81,4.28211,0.18940,3.66190,NAN,NAN,1.00000
22040,0x000E,1,FALSE,1143.77,4.32222,0.18940,3.66320,NAN,NAN,3.00000
22250,0x000E,1,FALSE,1154.66,4.36217,0.18940,3.66890,NAN,NAN,5.30000
22460,0x000E,1,FALSE,1165.51,4.40197,0.18940,3.67440,NAN,NAN,6.90000
22670,0x000E,1,FALSE,1176.45,4.44222,0.18940,3.67810,NAN,NAN,8.10000
22880,0x000E,1,FALSE,1187.3,4.48210,0.18940,3.67830,NAN,NAN,6.70000
23090,0x000E,1,FALSE,1198.19,4.52213,0.18940,3.66990,NAN,NAN,3.20000
23300,0x000E,1,FALSE,1209.14,4.56225,0.18930,3.65890,NAN,NAN,3.00000
23510,0x000E,1,FALSE,1219.98,4.60186,0.18940,3.64990,NAN,NAN,2.20000
23720,0x000E,1,FALSE,1230.87,4.64156,0.18940,3.63940,NAN,NAN,1.50000
23930,0x000E,1,FALSE,1241.82,4.68134,0.18940,3.63070,NAN,NAN,1.40000
24140,0x000E,1,FALSE,1252.66,4.72064,0.18940,3.62110,NAN,NAN,0.60000
24350,0x000E,1,FALSE,1263.55,4.76003,0.18940,3.61240,NAN,NAN,0.80000
24560,0x000E,1,FALSE,1274.5,4.79953,0.18940,3.60560,NAN,NAN,0.40000
24770,0x000E,1,FALSE,1285.34,4.83857,0.18930,3.59800,NAN,NAN,0.80000
24980,0x000E,1,FALSE,1296.23,4.87774,0.18940,3.59330,NAN,NAN,1.00000
25190,0x000E,1,FALSE,1307.18,4.91705,0.18940,3.58710,NAN,NAN,0.50000
25400,0x000E,1,FALSE,1318.03,4.95594,0.18940,3.58230,NAN,NAN,0.70000
25610,0x000E,1,FALSE,1328.93,4.99496,0.18930,3.57760,NAN,NAN,-0.30000
25820,0x000E,1,FALSE,1339.88,5.03408,0.18940,3.57170,NAN,NAN,0.50000
26030,0x000E,1,FALSE,1350.72,5.07277,0.18940,3.56760,NAN,NAN,0.90000
26240,0x000E,1,FALSE,1361.61,5.11159,0.18940,3.55980,NAN,NAN,0.50000
26450,0x000E,1,FALSE,1372.56,5.15054,0.18940,3.55370,NAN,NAN,0.80000
26660,0x000E,1,FALSE,1383.41,5.18904,0.18940,3.54570,NAN,NAN,0.10000
26870,0x000E,1,FALSE,1394.3,5.22763,0.18940,3.53680,NAN,NAN,0.60000
27080,0x000E,1,FALSE,1405.25,5.26631,0.18940,3.52860,NAN,NAN,0.40000
27290,0x000E,1,FALSE,1416.1,5.30450,0.18940,3.51510,NAN,NAN,0.60000
27500,0x000E,1,FALSE,1427.05,5.34291,0.18940,3.50250,NAN,NAN,0.90000
27710,0x000E,1,FALSE,1437.95,5.38100,0.18940,3.48450,NAN,NAN,0.40000
27920,0x000E,1,FALSE,1448.8,5.41869,0.18940,3.46430,NAN,NAN,0.70000
28130,0x000E,1,FALSE,1459.75,5.45651,0.18940,3.43990,NAN,NAN,0.10000
28340,0x000E,1,FALSE,1470.65,5.49380,0.18940,3.40510,NAN,NAN,0.70000
28550,0x000E,1,FALSE,1481.49,5.53052,0.18940,3.36450,NAN,NAN,1.10000
28760,0x000E,1,FALSE,1492.44,5.56706,0.18940,3.30570,NAN,NAN,0.70000
28970,0x000E,1,FALSE,1503.34,5.60267,0.18940,3.23000,NAN,NAN,1.00000
29180,0x000E,1,FALSE,1514.18,5.63716,0.18940,3.12450,NAN,NAN,0.20000
29390,0x000E,1,FALSE,1525.12,5.67056,0.18940,2.97120,NAN,NAN,1.00000
29600,0x000E,1,FALSE,1535.97,5.70168,0.18940,2.76130,NAN,NAN,1.50000
29608,0x000E,1,FALSE,1536.43,3.51668,0.18940,2.74990,NAN,NAN,1.40000

[DISCHARGE RESULT]
LoRange,FALSE
FinishedBy,1(Cut Voltage)
OpenVolt[V],4.02500
OpenCurr[A],0.00010
OpenTemp[°C],-0.30000
StartVolt[V],4.00550
StartCurr[A],0.18910
StartTemp[°C],-0.30000
CutoffVolt[V],2.74990
CutoffCurr[A],0.18940
CutoffTemp[°C],1.40000
TimeElapsed[s],29608
Power[Wh],3.51668
StartPulseA[V],NAN
CurrPulseA[V],NAN
StartPulseB[V],NAN
CurrPulseB[V],NAN
TempSet[°C],OFF
TempMon[°C],OFF
HumidSet[%],OFF
HumidMon[%],OFF

[LIFE]
CycleNo,2
Action,Discharge
Start,2021/02/28,21:40:14
End,2021/03/01,5:53:45
Capacity[mAh],925.031

[IMPEDANCE],AfterCharge,AfterRest
Range,0,0
AutoRange,FALSE,FALSE
Resistance[ohm],NAN,NAN
Reactance[ohm],NAN,NAN

File: temp2.CSV
[TEST CONDITION]
CondName,バッテリ温度特性試験20210227
ModelID,21
Average,0
CheckDut,FALSE
AutoFine,FALSE
DateTime,2021/02/27,21:40:39
Operator,米山まうむ
Notes,運用に向けてバッテリの温度特性を測定する
運用時の消費電流を鑑み，0.1C放電で行う
なおこんなに運用直前にやることではないので，次期プロジェクトの人間はもっと早い段階で行うことをお勧めする
BatteryName,UF103450P
NominalCapacity[mAh],1800.0
NominalVoltage[V],3.70000
Volume[ml],0.10
Weight[g],38.30
SoftOvp[V],4.40000
SoftUvp[V],2.50000
SoftOah[%],110
SoftOtp[°C],60.00000
DeltaT[s],10.00000
DeltaV[V],0.10000
DeltaI[A],0.10000
ImpRange[ohm],0
Frequency[Hz],1000
AutoRange,FALSE
AfterCharge,FALSE
AfterChargeRest,FALSE
AfterDischarge,FALSE
AfterDischargeRest,FALSE
CapacityRate_C[%],OFF
CapacityRate_D[%],OFF
Impedance_C[ohm],OFF
Impedance_D[ohm],OFF
SeqInfoName,

[CHARGE SHEET]
SheetNo,2
Range,HIGH
Mode,CC-CV
ChargeTime[s],0
RestTime[s],0
Current[A],0.00000
CvVolt[V],0.00000
CvTime[s],0
ItCurrent[A],OFF
ItTime[s],OFF

[DISCHARGE SHEET]
SheetNo,2
Range,HIGH
Mode,CC
DischargeTime[s],43200
RestTime[s],0
Current[A],0.18800
CapacityVolt[V],3.70000
CutoffVolt[V],2.75000

[DISCHARGE MONITOR]
TimeElapsed[s],StdState,OpnState,LowRange,Capacity[mAh],Power[Wh],Curr[A],Volt[V],VoltHi[V],VoltLo[V],Temp[°C],TermState,CellVolt[V],CellVoltHi[V],CellVoltLo[V],CellTemp[°C],(continued)
0,0x000E,0,FALSE,0.00000,0.00000,0.00000,4.07300,NAN,NAN,2.40000
210,0x000E,1,FALSE,10.43525,0.04192,0.18930,4.00930,NAN,NAN,2.60000
430,0x000E,1,FALSE,21.42503,0.08592,0.18930,3.99960,NAN,NAN,2.00000
650,0x000E,1,FALSE,32.46931,0.13005,0.18930,3.99240,NAN,NAN,2.40000
870,0x000E,1,FALSE,43.41267,0.17371,0.18930,3.98640,NAN,NAN,2.60000
1090,0x000E,1,FALSE,54.45400,0.21768,0.18930,3.97970,NAN,NAN,1.90000
1310,0x000E,1,FALSE,65.39797,0.26120,0.18930,3.97330,NAN,NAN,2.40000
1530,0x000E,1,FALSE,76.43903,0.30503,0.18930,3.96780,NAN,NAN,2.60000
1750,0x000E,1,FALSE,87.38167,0.34842,0.18930,3.96210,NAN,NAN,2.00000
1970,0x000E,1,FALSE,98.42367,0.39213,0.18930,3.95570,NAN,NAN,2.30000
2190,0x000E,1,FALSE,109.366,0.43538,0.18930,3.95060,NAN,NAN,2.50000
2410,0x000E,1,FALSE,120.406,0.47897,0.18930,3.94590,NAN,NAN,2.30000
2630,0x000E,1,FALSE,131.351,0.52212,0.18930,3.93990,NAN,NAN,2.30000
2850,0x000E,1,FALSE,142.346,0.56540,0.18930,3.93510,NAN,NAN,2.50000
3070,0x000E,1,FALSE,153.389,0.60883,0.18930,3.93100,NAN,NAN,2.60000
3290,0x000E,1,FALSE,164.326,0.65180,0.18930,3.92550,NAN,NAN,2.10000
3510,0x000E,1,FALSE,175.364,0.69509,0.18930,3.92090,NAN,NAN,2.40000
3730,0x000E,1,FALSE,186.302,0.73796,0.18930,3.91710,NAN,NAN,2.60000
3950,0x000E,1,FALSE,197.341,0.78117,0.18930,3.91240,NAN,NAN,1.80000
4170,0x000E,1,FALSE,208.284,0.82395,0.18930,3.90760,NAN,NAN,2.30000
4390,0x000E,1,FALSE,219.329,0.86709,0.18930,3.90380,NAN,NAN,2.50000
4610,0x000E,1,FALSE,230.274,0.90980,0.18930,3.89990,NAN,NAN,2.00000
4830,0x000E,1,FALSE,241.321,0.95284,0.18930,3.89470,NAN,NAN,2.30000
5050,0x000E,1,FALSE,252.271,0.99546,0.18930,3.89080,NAN,NAN,2.50000
5270,0x000E,1,FALSE,263.267,1.03822,0.18930,3.88710,NAN,NAN,2.50000
5490,0x000E,1,FALSE,274.311,1.08112,0.18930,3.88180,NAN,NAN,2.30000
5710,0x000E,1,FALSE,285.254,1.12357,0.18930,3.87750,NAN,NAN,2.50000
5930,0x000E,1,FALSE,296.297,1.16637,0.18930,3.87390,NAN,NAN,2.70000
6150,0x000E,1,FALSE,307.239,1.20873,0.18930,3.86870,NAN,NAN,2.10000
6370,0x000E,1,FALSE,318.282,1.25142,0.18930,3.86400,NAN,NAN,2.40000
6590,0x000E,1,FALSE,329.23,1.29370,0.18930,3.86010,NAN,NAN,2.70000
6810,0x000E,1,FALSE,340.277,1.33631,0.18930,3.85550,NAN,NAN,1.80000
7030,0x000E,1,FALSE,351.219,1.37847,0.18930,3.85010,NAN,NAN,2.30000
7250,0x000E,1,FALSE,362.265,1.42097,0.18930,3.84580,NAN,NAN,2.60000
7470,0x000E,1,FALSE,373.206,1.46302,0.18930,3.84160,NAN,NAN,2.30000
7690,0x000E,1,FALSE,384.2,1.50522,0.18930,3.83570,NAN,NAN,2.40000
7910,0x000E,1,FALSE,395.244,1.54755,0.18930,3.83090,NAN,NAN,2.60000
8130,0x000E,1,FALSE,406.184,1.58944,0.18930,3.82680,NAN,NAN,2.70000
8350,0x000E,1,FALSE,417.229,1.63167,0.18930,3.82090,NAN,NAN,2.30000
8570,0x000E,1,FALSE,428.178,1.67347,0.18930,3.81590,NAN,NAN,2.50000
8790,0x000E,1,FALSE,439.226,1.71560,0.18930,3.81170,NAN,NAN,2.70000
9010,0x000E,1,FALSE,450.169,1.75729,0.18930,3.80660,NAN,NAN,2.00000
9230,0x000E,1,FALSE,461.213,1.79929,0.18930,3.80170,NAN,NAN,2.40000
9450,0x000E,1,FALSE,472.157,1.84088,0.18930,3.79800,NAN,NAN,2.70000
9670,0x000E,1,FALSE,483.203,1.88281,0.18930,3.79390,NAN,NAN,2.00000
9890,0x000E,1,FALSE,494.151,1.92431,0.18930,3.78940,NAN,NAN,2.40000
10110,0x000E,1,FALSE,505.15,1.96597,0.18930,3.78620,NAN,NAN,2.60000
10330,0x000E,1,FALSE,516.198,2.00778,0.18930,3.78330,NAN,NAN,2.40000
10550,0x000E,1,FALSE,527.143,2.04916,0.18930,3.77910,NAN,NAN,2.30000
10770,0x000E,1,FALSE,538.188,2.09088,0.18930,3.77620,NAN,NAN,2.50000
10990,0x000E,1,FALSE,549.134,2.13220,0.18930,3.77390,NAN,NAN,2.70000
11210,0x000E,1,FALSE,560.178,2.17386,0.18930,3.77030,NAN,NAN,2.20000
11430,0x000E,1,FALSE,571.125,2.21511,0.18930,3.76760,NAN,NAN,2.50000
11650,0x000E,1,FALSE,582.172,2.25672,0.18930,3.76560,NAN,NAN,2.70000
11870,0x000E,1,FALSE,593.118,2.29792,0.18930,3.76290,NAN,NAN,1.80000
12090,0x000E,1,FALSE,604.164,2.33947,0.18930,3.76010,NAN,NAN,2.30000
12310,0x000E,1,FALSE,615.113,2.38062,0.18930,3.75820,NAN,NAN,2.60000
12530,0x000E,1,FALSE,626.109,2.42193,0.18930,3.75630,NAN,NAN,2.20000
12750,0x000E,1,FALSE,637.155,2.46340,0.18930,3.75320,NAN,NAN,2.30000
12970,0x000E,1,FALSE,648.099,2.50447,0.18930,3.75140,NAN,NAN,2.50000
13190,0x000E,1,FALSE,659.138,2.54587,0.18930,3.75000,NAN,NAN,2.60000
13410,0x000E,1,FALSE,670.084,2.58689,0.18930,3.74700,NAN,NAN,2.30000
13630,0x000E,1,FALSE,681.132,2.62828,0.18930,3.74510,NAN,NAN,2.50000
13850,0x000E,1,FALSE,692.079,2.66927,0.18930,3.74380,NAN,NAN,2.70000
14070,0x000E,1,FALSE,703.124,2.71060,0.18930,3.74140,NAN,NAN,2.10000
14290,0x000E,1,FALSE,714.067,2.75153,0.18930,3.73940,NAN,NAN,2.40000
14510,0x000E,1,FALSE,725.113,2.79283,0.18930,3.73820,NAN,NAN,2.70000
14730,0x000E,1,FALSE,736.058,2.83373,0.18930,3.73630,NAN,NAN,1.80000
14950,0x000E,1,FALSE,747.054,2.87479,0.18930,3.73410,NAN,NAN,2.30000
15170,0x000E,1,FALSE,758.1,2.91603,0.18930,3.73280,NAN,NAN,2.60000
15390,0x000E,1,FALSE,769.046,2.95688,0.18930,3.73170,NAN,NAN,2.30000
15610,0x000E,1,FALSE,780.095,2.99810,0.18930,3.72930,NAN,NAN,2.40000
15830,0x000E,1,FALSE,791.042,3.03891,0.18930,3.72800,NAN,NAN,2.50000
16050,0x000E,1,FALSE,802.088,3.08008,0.18930,3.72740,NAN,NAN,2.90000
16270,0x000E,1,FALSE,813.033,3.12088,0.18930,3.72830,NAN,NAN,4.50000
16490,0x000E,1,FALSE,824.082,3.16209,0.18930,3.73220,NAN,NAN,6.90000
16710,0x000E,1,FALSE,835.03,3.20297,0.18930,3.73600,NAN,NAN,8.50000
16930,0x000E,1,FALSE,846.08,3.24426,0.18930,3.73870,NAN,NAN,9.70000
17150,0x000E,1,FALSE,857.03,3.28520,0.18930,3.73910,NAN,NAN,8.70000
17370,0x000E,1,FALSE,868.028,3.32630,0.18930,3.73480,NAN,NAN,5.70000
17590,0x000E,1,FALSE,879.027,3.36735,0.18930,3.72880,NAN,NAN,4.30000
17810,0x000E,1,FALSE,890.028,3.40834,0.18930,3.72480,NAN,NAN,4.00000
18030,0x000E,1,FALSE,901.078,3.44948,0.18930,3.72170,NAN,NAN,3.40000
18250,0x000E,1,FALSE,912.025,3.49020,0.18930,3.71820,NAN,NAN,3.10000
18470,0x000E,1,FALSE,923.073,3.53126,0.18930,3.71610,NAN,NAN,3.00000
18690,0x000E,1,FALSE,934.021,3.57193,0.18930,3.71470,NAN,NAN,2.90000
18910,0x000E,1,FALSE,945.07,3.61296,0.18930,3.71200,NAN,NAN,2.60000
19130,0x000E,1,FALSE,956.02,3.65359,0.18930,3.71040,NAN,NAN,2.70000
19350,0x000E,1,FALSE,967.069,3.69458,0.18930,3.70950,NAN,NAN,2.90000
[...]
21550,0x000E,1,FALSE,1077.02,4.10142,0.18930,3.69160,NAN,NAN,2.60000
21770,0x000E,1,FALSE,1088.06,4.14218,0.18930,3.68840,NAN,NAN,2.50000
21990,0x000E,1,FALSE,1099.01,4.18254,0.18930,3.68620,NAN,NAN,2.70000
22210,0x000E,1,FALSE,1110.06,4.22325,0.18930,3.68440,NAN,NAN,2.80000
22430,0x000E,1,FALSE,1121.01,4.26356,0.18930,3.68080,NAN,NAN,2.40000
22650,0x000E,1,FALSE,1132,4.30403,0.18930,3.67790,NAN,NAN,2.70000
22870,0x000E,1,FALSE,1143.06,4.34466,0.18930,3.67540,NAN,NAN,2.90000
23090,0x000E,1,FALSE,1154.01,4.38489,0.18930,3.67160,NAN,NAN,2.10000
23310,0x000E,1,FALSE,1165.06,4.42544,0.18930,3.66770,NAN,NAN,2.60000
23530,0x000E,1,FALSE,1176.01,4.46558,0.18930,3.66450,NAN,NAN,2.80000
23750,0x000E,1,FALSE,1187.06,4.50605,0.18930,3.66080,NAN,NAN,2.30000
23970,0x000E,1,FALSE,1198.01,4.54609,0.18930,3.65570,NAN,NAN,2.70000
24190,0x000E,1,FALSE,1209.05,4.58644,0.18930,3.65150,NAN,NAN,2.80000
24410,0x000E,1,FALSE,1220,4.62638,0.18930,3.64750,NAN,NAN,2.80000
24630,0x000E,1,FALSE,1231.04,4.66664,0.18930,3.64130,NAN,NAN,2.60000
24850,0x000E,1,FALSE,1241.99,4.70648,0.18930,3.63590,NAN,NAN,2.80000
25070,0x000E,1,FALSE,1252.99,4.74644,0.18930,3.63100,NAN,NAN,3.00000
25290,0x000E,1,FALSE,1264.04,4.78651,0.18930,3.62400,NAN,NAN,2.50000
25510,0x000E,1,FALSE,1274.99,4.82615,0.18930,3.61850,NAN,NAN,2.80000
25730,0x000E,1,FALSE,1286.03,4.86610,0.18930,3.61470,NAN,NAN,3.00000
25950,0x000E,1,FALSE,1296.98,4.90566,0.18930,3.61010,NAN,NAN,2.20000
26170,0x000E,1,FALSE,1308.03,4.94552,0.18930,3.60610,NAN,NAN,2.70000
26390,0x000E,1,FALSE,1318.98,4.98499,0.18930,3.60320,NAN,NAN,2.90000
26610,0x000E,1,FALSE,1330.03,5.02479,0.18930,3.59980,NAN,NAN,2.40000
26830,0x000E,1,FALSE,1340.98,5.06416,0.18930,3.59460,NAN,NAN,2.80000
27050,0x000E,1,FALSE,1352.03,5.10384,0.18930,3.59070,NAN,NAN,2.90000
27270,0x000E,1,FALSE,1362.98,5.14314,0.18930,3.58690,NAN,NAN,2.80000
27490,0x000E,1,FALSE,1373.98,5.18255,0.18930,3.57970,NAN,NAN,2.70000
27710,0x000E,1,FALSE,1385.03,5.22207,0.18930,3.57350,NAN,NAN,2.80000
27930,0x000E,1,FALSE,1395.98,5.26117,0.18930,3.56750,NAN,NAN,3.00000
28150,0x000E,1,FALSE,1407.03,5.30055,0.18930,3.55730,NAN,NAN,2.50000
28370,0x000E,1,FALSE,1417.98,5.33944,0.18930,3.54680,NAN,NAN,2.80000
28590,0x000E,1,FALSE,1429.04,5.37857,0.18930,3.53530,NAN,NAN,3.00000
28810,0x000E,1,FALSE,1439.99,5.41721,0.18930,3.51920,NAN,NAN,2.20000
29030,0x000E,1,FALSE,1451.04,5.45598,0.18930,3.49760,NAN,NAN,2.70000
29250,0x000E,1,FALSE,1461.99,5.49414,0.18930,3.47160,NAN,NAN,3.00000
29470,0x000E,1,FALSE,1473.04,5.53232,0.18930,3.43730,NAN,NAN,2.70000
29690,0x000E,1,FALSE,1483.99,5.56970,0.18930,3.38740,NAN,NAN,2.90000
29910,0x000E,1,FALSE,1494.99,5.60663,0.18930,3.32520,NAN,NAN,3.10000
30130,0x000E,1,FALSE,1506.04,5.64294,0.18930,3.24160,NAN,NAN,3.20000
30350,0x000E,1,FALSE,1516.99,5.67778,0.18930,3.11200,NAN,NAN,3.00000
30570,0x000E,1,FALSE,1528.04,5.71109,0.18930,2.88650,NAN,NAN,3.20000
30643,0x000E,1,FALSE,1531.69,3.89057,0.18940,2.74980,NAN,NAN,3.30000

[DISCHARGE RESULT]
LoRange,FALSE
FinishedBy,1(Cut Voltage)
OpenVolt[V],4.06120
OpenCurr[A],0.00010
OpenTemp[°C],2.30000
StartVolt[V],4.03570
StartCurr[A],0.18890
StartTemp[°C],2.30000
CutoffVolt[V],2.74980
CutoffCurr[A],0.18940
CutoffTemp[°C],3.30000
TimeElapsed[s],30643
Power[Wh],3.89057
StartPulseA[V],NAN
CurrPulseA[V],NAN
StartPulseB[V],NAN
CurrPulseB[V],NAN
TempSet[°C],OFF
TempMon[°C],OFF
HumidSet[%],OFF
HumidMon[%],OFF

[LIFE]
CycleNo,2
Action,Discharge
Start,2021/03/06,21:01:26
End,2021/03/07,5:32:12
Capacity[mAh],1019.97

[IMPEDANCE],AfterCharge,AfterRest
Range,0,0
AutoRange,FALSE,FALSE
Resistance[ohm],NAN,NAN
Reactance[ohm],NAN,NAN