Folder: BatteryTemperatureCharacteristics/csvFiles/20210227 (part 4)

File: temp15.CSV
[TEST CONDITION]
CondName,バッテリ温度特性試験20210227
ModelID,21
Average,0
CheckDut,FALSE
AutoFine,FALSE
DateTime,2021/02/27,21:40:39
Operator,米山まうむ
Notes,運用に向けてバッテリの温度特性を測定する
運用時の消費電流を鑑み，0.1C放電で行う
なおこんなに運用直前にやることではないので，次期プロジェクトの人間はもっと早い段階で行うことをお勧めする
BatteryName,UF103450P
NominalCapacity[mAh],1800.0
NominalVoltage[V],3.70000
Volume[ml],0.10
Weight[g],38.30
SoftOvp[V],4.40000
SoftUvp[V],2.50000
SoftOah[%],110
SoftOtp[°C],60.00000
DeltaT[s],10.00000
DeltaV[V],0.10000
DeltaI[A],0.10000
ImpRange[ohm],0
Frequency[Hz],1000
AutoRange,FALSE
AfterCharge,FALSE
AfterChargeRest,FALSE
AfterDischarge,FALSE
AfterDischargeRest,FALSE
CapacityRate_C[%],OFF
CapacityRate_D[%],OFF
Impedance_C[ohm],OFF
Impedance_D[ohm],OFF
SeqInfoName,

[CHARGE SHEET]
SheetNo,2
Range,HIGH
Mode,CC-CV
ChargeTime[s],0
RestTime[s],0
Current[A],0.00000
CvVolt[V],0.00000
CvTime[s],0
ItCurrent[A],OFF
ItTime[s],OFF

[DISCHARGE SHEET]
SheetNo,2
Range,HIGH
Mode,CC
DischargeTime[s],43200
RestTime[s],0
Current[A],0.18800
CapacityVolt[V],3.70000
CutoffVolt[V],2.75000

[DISCHARGE MONITOR]
TimeElapsed[s],StdState,OpnState,LowRange,Capacity[mAh],Power[Wh],Curr[A],Volt[V],VoltHi[V],VoltLo[V],Temp[°C],TermState,CellVolt[V],CellVoltHi[V],CellVoltLo[V],CellTemp[°C],(continued)
0,0x000E,0,FALSE,0.00000,0.00000,0.00000,4.09260,NAN,NAN,15.30000
220,0x000E,1,FALSE,11.37528,0.04612,0.18940,4.04880,NAN,NAN,15.20000
450,0x000E,1,FALSE,23.37420,0.09465,0.18930,4.04090,NAN,NAN,15.00000
680,0x000E,1,FALSE,35.27005,0.14268,0.18930,4.03460,NAN,NAN,15.40000
910,0x000E,1,FALSE,47.27108,0.19106,0.18930,4.02830,NAN,NAN,15.10000
1140,0x000E,1,FALSE,59.16775,0.23894,0.18940,4.02260,NAN,NAN,15.70000
1370,0x000E,1,FALSE,71.16453,0.28716,0.18930,4.01690,NAN,NAN,15.40000
1600,0x000E,1,FALSE,83.11159,0.33512,0.18940,4.01140,NAN,NAN,15.70000
1830,0x000E,1,FALSE,95.00744,0.38280,0.18930,4.00610,NAN,NAN,15.40000
2060,0x000E,1,FALSE,107.007,0.43084,0.18930,4.00060,NAN,NAN,15.60000
2290,0x000E,1,FALSE,118.903,0.47839,0.18930,3.99540,NAN,NAN,15.40000
2520,0x000E,1,FALSE,130.905,0.52631,0.18930,3.98990,NAN,NAN,15.40000
2750,0x000E,1,FALSE,142.802,0.57374,0.18930,3.98490,NAN,NAN,15.30000
2980,0x000E,1,FALSE,154.801,0.62152,0.18930,3.97950,NAN,NAN,15.20000
3210,0x000E,1,FALSE,166.697,0.66883,0.18930,3.97470,NAN,NAN,15.30000
3440,0x000E,1,FALSE,178.645,0.71629,0.18930,3.96950,NAN,NAN,15.10000
3670,0x000E,1,FALSE,190.644,0.76389,0.18930,3.96490,NAN,NAN,15.70000
3900,0x000E,1,FALSE,202.537,0.81101,0.18930,3.96000,NAN,NAN,15.30000
4130,0x000E,1,FALSE,214.537,0.85850,0.18930,3.95540,NAN,NAN,15.70000
4360,0x000E,1,FALSE,226.431,0.90551,0.18940,3.95090,NAN,NAN,15.30000
4590,0x000E,1,FALSE,238.433,0.95290,0.18930,3.94630,NAN,NAN,15.60000
4820,0x000E,1,FALSE,250.328,0.99981,0.18930,3.94210,NAN,NAN,15.30000
5050,0x000E,1,FALSE,262.273,1.04687,0.18940,3.93750,NAN,NAN,15.40000
5280,0x000E,1,FALSE,274.268,1.09408,0.18930,3.93340,NAN,NAN,15.20000
5510,0x000E,1,FALSE,286.163,1.14083,0.18930,3.92900,NAN,NAN,15.10000
5740,0x000E,1,FALSE,298.161,1.18795,0.18940,3.92500,NAN,NAN,15.40000
5970,0x000E,1,FALSE,310.058,1.23461,0.18930,3.92060,NAN,NAN,15.10000
6200,0x000E,1,FALSE,322.053,1.28161,0.18930,3.91650,NAN,NAN,15.80000
6430,0x000E,1,FALSE,333.947,1.32817,0.18930,3.91230,NAN,NAN,15.40000
6660,0x000E,1,FALSE,345.892,1.37487,0.18930,3.90810,NAN,NAN,15.70000
6890,0x000E,1,FALSE,357.889,1.42173,0.18930,3.90400,NAN,NAN,15.40000
7120,0x000E,1,FALSE,369.786,1.46815,0.18930,3.89970,NAN,NAN,15.60000
7350,0x000E,1,FALSE,381.787,1.51492,0.18940,3.89580,NAN,NAN,15.40000
7580,0x000E,1,FALSE,393.683,1.56124,0.18930,3.89140,NAN,NAN,15.40000
7810,0x000E,1,FALSE,405.684,1.60791,0.18930,3.88740,NAN,NAN,15.30000
8040,0x000E,1,FALSE,417.58,1.65412,0.18930,3.88300,NAN,NAN,15.20000
8270,0x000E,1,FALSE,429.58,1.70069,0.18930,3.87890,NAN,NAN,15.40000
8500,0x000E,1,FALSE,441.531,1.74702,0.18930,3.87440,NAN,NAN,15.10000
8730,0x000E,1,FALSE,453.43,1.79309,0.18930,3.87000,NAN,NAN,15.80000
8960,0x000E,1,FALSE,465.429,1.83949,0.18930,3.86530,NAN,NAN,15.40000
9190,0x000E,1,FALSE,477.327,1.88545,0.18930,3.86050,NAN,NAN,15.80000
9420,0x000E,1,FALSE,489.327,1.93174,0.18930,3.85560,NAN,NAN,15.40000
9650,0x000E,1,FALSE,501.224,1.97758,0.18930,3.85020,NAN,NAN,15.70000
9880,0x000E,1,FALSE,513.226,2.02375,0.18930,3.84510,NAN,NAN,15.40000
10110,0x000E,1,FALSE,525.123,2.06946,0.18930,3.83930,NAN,NAN,15.50000
10340,0x000E,1,FALSE,537.074,2.11531,0.18930,3.83400,NAN,NAN,15.40000
10570,0x000E,1,FALSE,549.079,2.16130,0.18940,3.82820,NAN,NAN,15.30000
10800,0x000E,1,FALSE,560.982,2.20684,0.18930,3.82310,NAN,NAN,15.30000
11030,0x000E,1,FALSE,572.989,2.25270,0.18940,3.81780,NAN,NAN,15.10000
11260,0x000E,1,FALSE,584.886,2.29809,0.18930,3.81330,NAN,NAN,15.70000
11490,0x000E,1,FALSE,596.893,2.34385,0.18940,3.80890,NAN,NAN,15.30000
11720,0x000E,1,FALSE,608.798,2.38917,0.18940,3.80500,NAN,NAN,15.70000
11950,0x000E,1,FALSE,620.75,2.43462,0.18930,3.80150,NAN,NAN,15.40000
12180,0x000E,1,FALSE,632.755,2.48023,0.18930,3.79820,NAN,NAN,15.70000
12410,0x000E,1,FALSE,644.652,2.52539,0.18940,3.79520,NAN,NAN,15.40000
12640,0x000E,1,FALSE,656.656,2.57093,0.18930,3.79220,NAN,NAN,15.40000
12870,0x000E,1,FALSE,668.555,2.61604,0.18930,3.78960,NAN,NAN,15.30000
13100,0x000E,1,FALSE,680.557,2.66150,0.18930,3.78680,NAN,NAN,15.20000
13330,0x000E,1,FALSE,692.454,2.70654,0.18930,3.78460,NAN,NAN,15.30000
13560,0x000E,1,FALSE,704.404,2.75174,0.18930,3.78200,NAN,NAN,15.10000
13790,0x000E,1,FALSE,716.406,2.79712,0.18930,3.77970,NAN,NAN,15.70000
14020,0x000E,1,FALSE,728.308,2.84209,0.18930,3.77740,NAN,NAN,15.30000
14250,0x000E,1,FALSE,740.311,2.88741,0.18940,3.77520,NAN,NAN,15.70000
14480,0x000E,1,FALSE,752.214,2.93233,0.18930,3.77310,NAN,NAN,15.30000
14710,0x000E,1,FALSE,764.218,2.97760,0.18930,3.77090,NAN,NAN,15.60000
14940,0x000E,1,FALSE,776.115,3.02245,0.18940,3.76890,NAN,NAN,15.30000
15170,0x000E,1,FALSE,788.119,3.06768,0.18930,3.76680,NAN,NAN,15.40000
15400,0x000E,1,FALSE,800.071,3.11269,0.18930,3.76510,NAN,NAN,15.20000
15630,0x000E,1,FALSE,811.975,3.15749,0.18940,3.76300,NAN,NAN,15.10000
15860,0x000E,1,FALSE,823.98,3.20265,0.18930,3.76140,NAN,NAN,15.40000
16090,0x000E,1,FALSE,835.881,3.24740,0.18940,3.75950,NAN,NAN,15.10000
16320,0x000E,1,FALSE,847.885,3.29252,0.18930,3.75790,NAN,NAN,15.80000
16550,0x000E,1,FALSE,859.782,3.33721,0.18930,3.75620,NAN,NAN,15.40000
16780,0x000E,1,FALSE,871.786,3.38229,0.18930,3.75450,NAN,NAN,15.70000
17010,0x000E,1,FALSE,883.681,3.42693,0.18940,3.75300,NAN,NAN,15.40000
17240,0x000E,1,FALSE,895.631,3.47177,0.18940,3.75140,NAN,NAN,15.60000
17470,0x000E,1,FALSE,907.634,3.51679,0.18930,3.75010,NAN,NAN,15.30000
17700,0x000E,1,FALSE,919.533,3.56140,0.18930,3.74850,NAN,NAN,15.30000
17930,0x000E,1,FALSE,931.536,3.60638,0.18930,3.74730,NAN,NAN,15.30000
18160,0x000E,1,FALSE,943.435,3.65096,0.18930,3.74580,NAN,NAN,15.10000
18390,0x000E,1,FALSE,955.439,3.69591,0.18930,3.74480,NAN,NAN,15.60000
18620,0x000E,1,FALSE,967.338,3.74046,0.18940,3.74340,NAN,NAN,15.20000
18850,0x000E,1,FALSE,979.287,3.78518,0.18940,3.74230,NAN,NAN,15.80000
19080,0x000E,1,FALSE,991.289,3.83008,0.18940,3.74120,NAN,NAN,15.40000
19310,0x000E,1,FALSE,1003.19,3.87459,0.18940,3.74010,NAN,NAN,15.80000
19540,0x000E,1,FALSE,1015.19,3.91947,0.18940,3.73910,NAN,NAN,15.40000
19770,0x000E,1,FALSE,1027.08,3.96394,0.18930,3.73810,NAN,NAN,15.60000
[...]
22530,0x000E,1,FALSE,1170.45,4.49899,0.18940,3.72560,NAN,NAN,15.50000
22760,0x000E,1,FALSE,1182.45,4.54367,0.18930,3.72390,NAN,NAN,15.60000
22990,0x000E,1,FALSE,1194.34,4.58795,0.18930,3.72230,NAN,NAN,15.40000
23220,0x000E,1,FALSE,1206.34,4.63260,0.18940,3.72040,NAN,NAN,15.30000
23450,0x000E,1,FALSE,1218.24,4.67685,0.18930,3.71840,NAN,NAN,15.70000
23680,0x000E,1,FALSE,1230.24,4.72145,0.18940,3.71620,NAN,NAN,15.40000
23910,0x000E,1,FALSE,1242.14,4.76564,0.18940,3.71370,NAN,NAN,16.00000
24140,0x000E,1,FALSE,1254.08,4.81000,0.18940,3.71110,NAN,NAN,15.70000
24370,0x000E,1,FALSE,1266.09,4.85451,0.18930,3.70830,NAN,NAN,16.00000
24600,0x000E,1,FALSE,1277.98,4.89861,0.18940,3.70550,NAN,NAN,15.70000
24830,0x000E,1,FALSE,1289.98,4.94305,0.18940,3.70220,NAN,NAN,15.90000
25060,0x000E,1,FALSE,1301.87,4.98706,0.18940,3.69890,NAN,NAN,15.70000
25290,0x000E,1,FALSE,1313.87,5.03141,0.18930,3.69480,NAN,NAN,15.70000
25520,0x000E,1,FALSE,1325.77,5.07533,0.18940,3.69050,NAN,NAN,15.60000
25750,0x000E,1,FALSE,1337.72,5.11939,0.18930,3.68520,NAN,NAN,15.50000
25980,0x000E,1,FALSE,1349.72,5.16358,0.18940,3.67990,NAN,NAN,15.60000
26210,0x000E,1,FALSE,1361.61,5.20732,0.18930,3.67450,NAN,NAN,15.40000
26440,0x000E,1,FALSE,1373.61,5.25138,0.18930,3.66900,NAN,NAN,16.00000
26670,0x000E,1,FALSE,1385.5,5.29497,0.18930,3.66230,NAN,NAN,15.70000
26900,0x000E,1,FALSE,1397.5,5.33886,0.18930,3.65480,NAN,NAN,16.00000
27130,0x000E,1,FALSE,1409.4,5.38230,0.18930,3.64860,NAN,NAN,15.70000
27360,0x000E,1,FALSE,1421.35,5.42589,0.18940,3.64510,NAN,NAN,15.90000
27590,0x000E,1,FALSE,1433.35,5.46962,0.18940,3.64310,NAN,NAN,15.70000
27820,0x000E,1,FALSE,1445.25,5.51294,0.18940,3.64080,NAN,NAN,15.70000
28050,0x000E,1,FALSE,1457.25,5.55660,0.18930,3.63890,NAN,NAN,15.60000
28280,0x000E,1,FALSE,1469.14,5.59987,0.18930,3.63650,NAN,NAN,15.50000
28510,0x000E,1,FALSE,1481.14,5.64350,0.18940,3.63420,NAN,NAN,15.60000
28740,0x000E,1,FALSE,1493.04,5.68671,0.18940,3.63120,NAN,NAN,15.40000
28970,0x000E,1,FALSE,1504.98,5.73007,0.18930,3.62820,NAN,NAN,16.00000
29200,0x000E,1,FALSE,1516.98,5.77357,0.18930,3.62440,NAN,NAN,15.70000
29430,0x000E,1,FALSE,1528.87,5.81664,0.18930,3.62000,NAN,NAN,16.00000
29660,0x000E,1,FALSE,1540.87,5.86004,0.18930,3.61470,NAN,NAN,15.70000
29890,0x000E,1,FALSE,1552.76,5.90298,0.18940,3.60770,NAN,NAN,15.90000
30120,0x000E,1,FALSE,1564.76,5.94621,0.18930,3.59840,NAN,NAN,15.70000
30350,0x000E,1,FALSE,1576.66,5.98894,0.18930,3.58350,NAN,NAN,15.80000
30580,0x000E,1,FALSE,1588.66,6.03180,0.18930,3.55940,NAN,NAN,15.70000
30810,0x000E,1,FALSE,1600.55,6.07393,0.18930,3.52130,NAN,NAN,15.60000
31040,0x000E,1,FALSE,1612.5,6.11572,0.18940,3.47160,NAN,NAN,15.80000
31270,0x000E,1,FALSE,1624.5,6.15700,0.18930,3.40700,NAN,NAN,15.60000
31500,0x000E,1,FALSE,1636.4,6.19706,0.18930,3.32480,NAN,NAN,16.20000
31730,0x000E,1,FALSE,1648.4,6.23633,0.18930,3.21190,NAN,NAN,16.00000
31960,0x000E,1,FALSE,1660.3,6.27354,0.18930,3.01490,NAN,NAN,16.30000
32071,0x000E,1,FALSE,1666.07,4.96362,0.18930,2.75000,NAN,NAN,15.80000

[DISCHARGE RESULT]
LoRange,FALSE
FinishedBy,1(Cut Voltage)
OpenVolt[V],4.07360
OpenCurr[A],0.00010
OpenTemp[°C],15.30000
StartVolt[V],4.06830
StartCurr[A],0.18940
StartTemp[°C],15.30000
CutoffVolt[V],2.75000
CutoffCurr[A],0.18930
CutoffTemp[°C],15.80000
TimeElapsed[s],32071
Power[Wh],4.96362
StartPulseA[V],NAN
CurrPulseA[V],NAN
StartPulseB[V],NAN
CurrPulseB[V],NAN
TempSet[°C],OFF
TempMon[°C],OFF
HumidSet[%],OFF
HumidMon[%],OFF

[LIFE]
CycleNo,2
Action,Discharge
Start,2021/03/04,0:52:21
End,2021/03/04,9:46:55
Capacity[mAh],1295.54

[IMPEDANCE],AfterCharge,AfterRest
Range,0,0
AutoRange,FALSE,FALSE
Resistance[ohm],NAN,NAN
Reactance[ohm],NAN,NAN

File: temp20.CSV
[TEST CONDITION]
CondName,バッテリ温度特性試験20210227
ModelID,21
Average,0
CheckDut,FALSE
AutoFine,FALSE
DateTime,2021/02/27,21:40:39
Operator,米山まうむ
Notes,運用に向けてバッテリの温度特性を測定する
運用時の消費電流を鑑み，0.1C放電で行う
なおこんなに運用直前にやることではないので，次期プロジェクトの人間はもっと早い段階で行うことをお勧めする
BatteryName,UF103450P
NominalCapacity[mAh],1800.0
NominalVoltage[V],3.70000
Volume[ml],0.10
Weight[g],38.30
SoftOvp[V],4.40000
SoftUvp[V],2.50000
SoftOah[%],110
SoftOtp[°C],60.00000
DeltaT[s],10.00000
DeltaV[V],0.10000
DeltaI[A],0.10000
ImpRange[ohm],0
Frequency[Hz],1000
AutoRange,FALSE
AfterCharge,FALSE
AfterChargeRest,FALSE
AfterDischarge,FALSE
AfterDischargeRest,FALSE
CapacityRate_C[%],OFF
CapacityRate_D[%],OFF
Impedance_C[ohm],OFF
Impedance_D[ohm],OFF
SeqInfoName,

[CHARGE SHEET]
SheetNo,2
Range,HIGH
Mode,CC-CV
ChargeTime[s],0
RestTime[s],0
Current[A],0.00000
CvVolt[V],0.00000
CvTime[s],0
ItCurrent[A],OFF
ItTime[s],OFF

[DISCHARGE SHEET]
SheetNo,2
Range,HIGH
Mode,CC
DischargeTime[s],43200
RestTime[s],0
Current[A],0.18800
CapacityVolt[V],3.70000
CutoffVolt[V],2.75000

[DISCHARGE MONITOR]
TimeElapsed[s],StdState,OpnState,LowRange,Capacity[mAh],Power[Wh],Curr[A],Volt[V],VoltHi[V],VoltLo[V],Temp[°C],TermState,CellVolt[V],CellVoltHi[V],CellVoltLo[V],CellTemp[°C],(continued)
0,0x000E,0,FALSE,0.00000,0.00000,0.00000,4.09550,NAN,NAN,20.00000
220,0x000E,1,FALSE,11.37742,0.04621,0.18930,4.05660,NAN,NAN,20.00000
450,0x000E,1,FALSE,23.38197,0.09486,0.18930,4.04940,NAN,NAN,20.10000
680,0x000E,1,FALSE,35.27817,0.14299,0.18930,4.04300,NAN,NAN,20.10000
910,0x000E,1,FALSE,47.28181,0.19149,0.18930,4.03700,NAN,NAN,20.10000
1140,0x000E,1,FALSE,59.18514,0.23950,0.18930,4.03120,NAN,NAN,20.10000
1370,0x000E,1,FALSE,71.19436,0.28788,0.18930,4.02570,NAN,NAN,20.10000
1600,0x000E,1,FALSE,83.09964,0.33577,0.18930,4.02020,NAN,NAN,20.20000
1830,0x000E,1,FALSE,95.05702,0.38380,0.18930,4.01490,NAN,NAN,20.10000
2060,0x000E,1,FALSE,107.066,0.43198,0.18930,4.00960,NAN,NAN,20.20000
2290,0x000E,1,FALSE,118.972,0.47969,0.18930,4.00430,NAN,NAN,20.20000
2520,0x000E,1,FALSE,130.981,0.52774,0.18930,3.99910,NAN,NAN,20.20000
2750,0x000E,1,FALSE,142.889,0.57532,0.18930,3.99390,NAN,NAN,20.20000
2980,0x000E,1,FALSE,154.896,0.62325,0.18930,3.98880,NAN,NAN,20.20000
3210,0x000E,1,FALSE,166.801,0.67070,0.18930,3.98380,NAN,NAN,20.20000
3440,0x000E,1,FALSE,178.756,0.71830,0.18940,3.97890,NAN,NAN,20.20000
3670,0x000E,1,FALSE,190.763,0.76604,0.18930,3.97400,NAN,NAN,20.20000
3900,0x000E,1,FALSE,202.67,0.81332,0.18930,3.96930,NAN,NAN,20.20000
4130,0x000E,1,FALSE,214.683,0.86097,0.18930,3.96470,NAN,NAN,20.20000
4360,0x000E,1,FALSE,226.59,0.90815,0.18930,3.96010,NAN,NAN,20.20000
4590,0x000E,1,FALSE,238.6,0.95569,0.18930,3.95570,NAN,NAN,20.20000
4820,0x000E,1,FALSE,250.508,1.00276,0.18940,3.95130,NAN,NAN,20.20000
5050,0x000E,1,FALSE,262.467,1.04998,0.18930,3.94690,NAN,NAN,20.30000
5280,0x000E,1,FALSE,274.476,1.09735,0.18940,3.94260,NAN,NAN,20.30000
5510,0x000E,1,FALSE,286.381,1.14426,0.18940,3.93840,NAN,NAN,20.30000
5740,0x000E,1,FALSE,298.39,1.19152,0.18930,3.93410,NAN,NAN,20.30000
5970,0x000E,1,FALSE,310.293,1.23833,0.18930,3.92990,NAN,NAN,20.30000
6200,0x000E,1,FALSE,322.3,1.28548,0.18930,3.92580,NAN,NAN,20.30000
6430,0x000E,1,FALSE,334.206,1.33219,0.18930,3.92160,NAN,NAN,20.30000
6660,0x000E,1,FALSE,346.162,1.37906,0.18930,3.91750,NAN,NAN,20.30000
6890,0x000E,1,FALSE,358.168,1.42606,0.18930,3.91340,NAN,NAN,20.30000
7120,0x000E,1,FALSE,370.075,1.47263,0.18940,3.90940,NAN,NAN,20.30000
7350,0x000E,1,FALSE,382.085,1.51956,0.18930,3.90530,NAN,NAN,20.30000
7580,0x000E,1,FALSE,393.991,1.56602,0.18930,3.90130,NAN,NAN,20.30000
7810,0x000E,1,FALSE,405.998,1.61284,0.18940,3.89720,NAN,NAN,20.40000
8040,0x000E,1,FALSE,417.901,1.65920,0.18930,3.89320,NAN,NAN,20.40000
8270,0x000E,1,FALSE,429.912,1.70593,0.18930,3.88910,NAN,NAN,20.30000
8500,0x000E,1,FALSE,441.872,1.75242,0.18940,3.88490,NAN,NAN,20.40000
8730,0x000E,1,FALSE,453.778,1.79865,0.18930,3.88060,NAN,NAN,20.40000
8960,0x000E,1,FALSE,465.788,1.84522,0.18940,3.87620,NAN,NAN,20.30000
9190,0x000E,1,FALSE,477.695,1.89134,0.18930,3.87180,NAN,NAN,20.40000
9420,0x000E,1,FALSE,489.706,1.93782,0.18940,3.86710,NAN,NAN,20.40000
9650,0x000E,1,FALSE,501.612,1.98383,0.18940,3.86220,NAN,NAN,20.40000
9880,0x000E,1,FALSE,513.619,2.03017,0.18940,3.85720,NAN,NAN,20.40000
10110,0x000E,1,FALSE,525.524,2.07606,0.18940,3.85190,NAN,NAN,20.40000
10340,0x000E,1,FALSE,537.482,2.12208,0.18940,3.84640,NAN,NAN,20.40000
10570,0x000E,1,FALSE,549.488,2.16822,0.18940,3.84070,NAN,NAN,20.40000
10800,0x000E,1,FALSE,561.39,2.21390,0.18930,3.83500,NAN,NAN,20.40000
11030,0x000E,1,FALSE,573.399,2.25991,0.18940,3.82940,NAN,NAN,20.40000
11260,0x000E,1,FALSE,585.304,2.30547,0.18930,3.82400,NAN,NAN,20.40000
11490,0x000E,1,FALSE,597.308,2.35134,0.18930,3.81910,NAN,NAN,20.30000
11720,0x000E,1,FALSE,609.207,2.39675,0.18940,3.81460,NAN,NAN,20.30000
11950,0x000E,1,FALSE,621.16,2.44232,0.18940,3.81060,NAN,NAN,20.30000
12180,0x000E,1,FALSE,633.167,2.48805,0.18930,3.80700,NAN,NAN,20.30000
12410,0x000E,1,FALSE,645.068,2.53333,0.18940,3.80380,NAN,NAN,20.30000
12640,0x000E,1,FALSE,657.078,2.57899,0.18930,3.80070,NAN,NAN,20.30000
12870,0x000E,1,FALSE,668.978,2.62420,0.18930,3.79790,NAN,NAN,20.30000
13100,0x000E,1,FALSE,680.986,2.66979,0.18930,3.79510,NAN,NAN,20.30000
13330,0x000E,1,FALSE,692.886,2.71493,0.18930,3.79260,NAN,NAN,20.30000
13560,0x000E,1,FALSE,704.837,2.76024,0.18930,3.79010,NAN,NAN,20.30000
13790,0x000E,1,FALSE,716.842,2.80572,0.18930,3.78770,NAN,NAN,20.30000
14020,0x000E,1,FALSE,728.749,2.85080,0.18930,3.78540,NAN,NAN,20.30000
14250,0x000E,1,FALSE,740.758,2.89624,0.18930,3.78310,NAN,NAN,20.30000
14480,0x000E,1,FALSE,752.658,2.94125,0.18930,3.78090,NAN,NAN,20.30000
14710,0x000E,1,FALSE,764.666,2.98663,0.18930,3.77870,NAN,NAN,20.30000
14940,0x000E,1,FALSE,776.569,3.03159,0.18930,3.77660,NAN,NAN,20.30000
15170,0x000E,1,FALSE,788.571,3.07691,0.18930,3.77460,NAN,NAN,20.30000
15400,0x000E,1,FALSE,800.528,3.12202,0.18930,3.77270,NAN,NAN,20.30000
15630,0x000E,1,FALSE,812.433,3.16692,0.18930,3.77070,NAN,NAN,20.30000
15860,0x000E,1,FALSE,824.442,3.21219,0.18930,3.76890,NAN,NAN,20.30000
16090,0x000E,1,FALSE,836.343,3.25703,0.18940,3.76700,NAN,NAN,20.30000
16320,0x000E,1,FALSE,848.345,3.30223,0.18930,3.76530,NAN,NAN,20.30000
16550,0x000E,1,FALSE,860.243,3.34701,0.18930,3.76360,NAN,NAN,20.30000
16780,0x000E,1,FALSE,872.245,3.39217,0.18930,3.76180,NAN,NAN,20.30000
17010,0x000E,1,FALSE,884.142,3.43691,0.18940,3.76020,NAN,NAN,20.30000
17240,0x000E,1,FALSE,896.087,3.48181,0.18940,3.75860,NAN,NAN,20.30000
17470,0x000E,1,FALSE,908.086,3.52690,0.18930,3.75710,NAN,NAN,20.30000
17700,0x000E,1,FALSE,919.984,3.57159,0.18930,3.75560,NAN,NAN,20.30000
17930,0x000E,1,FALSE,931.986,3.61665,0.18930,3.75420,NAN,NAN,20.30000
18160,0x000E,1,FALSE,943.884,3.66131,0.18930,3.75280,NAN,NAN,20.30000
18390,0x000E,1,FALSE,955.883,3.70633,0.18940,3.75140,NAN,NAN,20.30000
18620,0x000E,1,FALSE,967.783,3.75095,0.18930,3.75010,NAN,NAN,20.30000
18850,0x000E,1,FALSE,979.735,3.79577,0.18930,3.74890,NAN,NAN,20.30000
19080,0x000E,1,FALSE,991.737,3.84075,0.18930,3.74770,NAN,NAN,20.30000
19310,0x000E,1,FALSE,1003.64,3.88534,0.18930,3.74650,NAN,NAN,20.30000
19540,0x000E,1,FALSE,1015.64,3.93031,0.18930,3.74540,NAN,NAN,20.30000
19770,0x000E,1,FALSE,1027.54,3.97487,0.18930,3.74430,NAN,NAN,20.30000
[...]
22760,0x000E,1,FALSE,1182.99,4.55585,0.18930,3.73070,NAN,NAN,20.40000
22990,0x000E,1,FALSE,1194.89,4.60025,0.18930,3.72920,NAN,NAN,20.40000
23220,0x000E,1,FALSE,1206.9,4.64502,0.18930,3.72760,NAN,NAN,20.40000
23450,0x000E,1,FALSE,1218.81,4.68939,0.18930,3.72580,NAN,NAN,20.40000
23680,0x000E,1,FALSE,1230.82,4.73413,0.18930,3.72370,NAN,NAN,20.40000
23910,0x000E,1,FALSE,1242.73,4.77845,0.18940,3.72150,NAN,NAN,20.40000
24140,0x000E,1,FALSE,1254.69,4.82294,0.18930,3.71900,NAN,NAN,20.50000
24370,0x000E,1,FALSE,1266.7,4.86757,0.18940,3.71630,NAN,NAN,20.40000
24600,0x000E,1,FALSE,1278.6,4.91180,0.18930,3.71370,NAN,NAN,20.40000
24830,0x000E,1,FALSE,1290.61,4.95639,0.18930,3.71090,NAN,NAN,20.40000
25060,0x000E,1,FALSE,1302.52,5.00055,0.18930,3.70800,NAN,NAN,20.50000
25290,0x000E,1,FALSE,1314.53,5.04506,0.18940,3.70480,NAN,NAN,20.50000
25520,0x000E,1,FALSE,1326.43,5.08914,0.18940,3.70110,NAN,NAN,20.50000
25750,0x000E,1,FALSE,1338.4,5.13338,0.18940,3.69680,NAN,NAN,20.40000
25980,0x000E,1,FALSE,1350.41,5.17776,0.18940,3.69150,NAN,NAN,20.40000
26210,0x000E,1,FALSE,1362.31,5.22167,0.18940,3.68600,NAN,NAN,20.40000
26440,0x000E,1,FALSE,1374.32,5.26590,0.18930,3.68090,NAN,NAN,20.50000
26670,0x000E,1,FALSE,1386.23,5.30968,0.18940,3.67560,NAN,NAN,20.50000
26900,0x000E,1,FALSE,1398.24,5.35378,0.18940,3.66910,NAN,NAN,20.40000
27130,0x000E,1,FALSE,1410.14,5.39742,0.18940,3.66150,NAN,NAN,20.40000
27360,0x000E,1,FALSE,1422.1,5.44117,0.18930,3.65520,NAN,NAN,20.40000
27590,0x000E,1,FALSE,1434.11,5.48504,0.18940,3.65230,NAN,NAN,20.40000
27820,0x000E,1,FALSE,1446.02,5.52851,0.18940,3.65060,NAN,NAN,20.40000
28050,0x000E,1,FALSE,1458.03,5.57234,0.18940,3.64910,NAN,NAN,20.40000
28280,0x000E,1,FALSE,1469.93,5.61578,0.18940,3.64750,NAN,NAN,20.40000
28510,0x000E,1,FALSE,1481.95,5.65958,0.18940,3.64580,NAN,NAN,20.40000
28740,0x000E,1,FALSE,1493.85,5.70297,0.18940,3.64390,NAN,NAN,20.40000
28970,0x000E,1,FALSE,1505.81,5.74654,0.18940,3.64170,NAN,NAN,20.40000
29200,0x000E,1,FALSE,1517.83,5.79027,0.18940,3.63930,NAN,NAN,20.40000
29430,0x000E,1,FALSE,1529.73,5.83358,0.18930,3.63640,NAN,NAN,20.40000
29660,0x000E,1,FALSE,1541.74,5.87723,0.18940,3.63300,NAN,NAN,20.40000
29890,0x000E,1,FALSE,1553.65,5.92046,0.18940,3.62870,NAN,NAN,20.40000
30120,0x000E,1,FALSE,1565.66,5.96400,0.18940,3.62310,NAN,NAN,20.40000
30350,0x000E,1,FALSE,1577.57,6.00709,0.18940,3.61500,NAN,NAN,20.40000
30580,0x000E,1,FALSE,1589.58,6.05044,0.18940,3.60130,NAN,NAN,20.40000
30810,0x000E,1,FALSE,1601.49,6.09319,0.18940,3.57600,NAN,NAN,20.40000
31040,0x000E,1,FALSE,1613.45,6.13574,0.18940,3.53820,NAN,NAN,20.40000
31270,0x000E,1,FALSE,1625.46,6.17796,0.18940,3.49020,NAN,NAN,20.50000
31500,0x000E,1,FALSE,1637.37,6.21917,0.18940,3.42980,NAN,NAN,20.50000
31730,0x000E,1,FALSE,1649.38,6.25991,0.18940,3.35050,NAN,NAN,20.50000
31960,0x000E,1,FALSE,1661.28,6.29919,0.18940,3.24180,NAN,NAN,20.50000
32190,0x000E,1,FALSE,1673.29,6.33716,0.18940,3.05810,NAN,NAN,20.60000
32305,0x000E,1,FALSE,1679.27,5.09395,0.18930,2.74990,NAN,NAN,20.60000

[DISCHARGE RESULT]
LoRange,FALSE
FinishedBy,1(Cut Voltage)
OpenVolt[V],4.07130
OpenCurr[A],0.00010
OpenTemp[°C],20.00000
StartVolt[V],4.07390
StartCurr[A],0.18910
StartTemp[°C],20.00000
CutoffVolt[V],2.74990
CutoffCurr[A],0.18930
CutoffTemp[°C],20.60000
TimeElapsed[s],32305
Power[Wh],5.09395
StartPulseA[V],NAN
CurrPulseA[V],NAN
StartPulseB[V],NAN
CurrPulseB[V],NAN
TempSet[°C],OFF
TempMon[°C],OFF
HumidSet[%],OFF
HumidMon[%],OFF

[LIFE]
CycleNo,2
Action,Discharge
Start,2021/03/02,22:17:06
End,2021/03/03,7:15:35
Capacity[mAh],1327.73

[IMPEDANCE],AfterCharge,AfterRest
Range,0,0
AutoRange,FALSE,FALSE
Resistance[ohm],NAN,NAN
Reactance[ohm],NAN,NAN