Folder: BatteryTemperatureCharacteristics/csvFiles/20210227 (part 3)

File: temp10.CSV
[TEST CONDITION]
CondName,バッテリ温度特性試験20210227
ModelID,21
Average,0
CheckDut,FALSE
AutoFine,FALSE
DateTime,2021/02/27,21:40:39
Operator,米山まうむ
Notes,運用に向けてバッテリの温度特性を測定する
運用時の消費電流を鑑み，0.1C放電で行う
なおこんなに運用直前にやることではないので，次期プロジェクトの人間はもっと早い段階で行うことをお勧めする
BatteryName,UF103450P
NominalCapacity[mAh],1800.0
NominalVoltage[V],3.70000
Volume[ml],0.10
Weight[g],38.30
SoftOvp[V],4.40000
SoftUvp[V],2.50000
SoftOah[%],110
SoftOtp[°C],60.00000
DeltaT[s],10.00000
DeltaV[V],0.10000
DeltaI[A],0.10000
ImpRange[ohm],0
Frequency[Hz],1000
AutoRange,FALSE
AfterCharge,FALSE
AfterChargeRest,FALSE
AfterDischarge,FALSE
AfterDischargeRest,FALSE
CapacityRate_C[%],OFF
CapacityRate_D[%],OFF
Impedance_C[ohm],OFF
Impedance_D[ohm],OFF
SeqInfoName,

[CHARGE SHEET]
SheetNo,2
Range,HIGH
Mode,CC-CV
ChargeTime[s],0
RestTime[s],0
Current[A],0.00000
CvVolt[V],0.00000
CvTime[s],0
ItCurrent[A],OFF
ItTime[s],OFF

[DISCHARGE SHEET]
SheetNo,2
Range,HIGH
Mode,CC
DischargeTime[s],43200
RestTime[s],0
Current[A],0.18800
CapacityVolt[V],3.70000
CutoffVolt[V],2.75000

[DISCHARGE MONITOR]
TimeElapsed[s],StdState,OpnState,LowRange,Capacity[mAh],Power[Wh],Curr[A],Volt[V],VoltHi[V],VoltLo[V],Temp[°C],TermState,CellVolt[V],CellVoltHi[V],CellVoltLo[V],CellTemp[°C],(continued)
0,0x000E,0,FALSE,0.00000,0.00000,0.00000,4.08300,NAN,NAN,9.80000
210,0x000E,1,FALSE,10.41042,0.04202,0.18930,4.02880,NAN,NAN,10.00000
430,0x000E,1,FALSE,21.37575,0.08615,0.18930,4.02130,NAN,NAN,10.20000
650,0x000E,1,FALSE,32.38864,0.13039,0.18930,4.01420,NAN,NAN,10.00000
870,0x000E,1,FALSE,43.30286,0.17416,0.18930,4.00800,NAN,NAN,10.40000
1090,0x000E,1,FALSE,54.31664,0.21827,0.18930,4.00230,NAN,NAN,9.80000
1310,0x000E,1,FALSE,65.23234,0.26193,0.18930,3.99640,NAN,NAN,9.90000
1530,0x000E,1,FALSE,76.24356,0.30590,0.18930,3.99140,NAN,NAN,10.70000
1750,0x000E,1,FALSE,87.15466,0.34942,0.18930,3.98560,NAN,NAN,10.00000
1970,0x000E,1,FALSE,98.16641,0.39327,0.18930,3.97980,NAN,NAN,10.30000
2190,0x000E,1,FALSE,109.085,0.43669,0.18930,3.97500,NAN,NAN,9.80000
2410,0x000E,1,FALSE,120.102,0.48045,0.18930,3.96930,NAN,NAN,9.90000
2630,0x000E,1,FALSE,131.016,0.52374,0.18930,3.96430,NAN,NAN,10.60000
2850,0x000E,1,FALSE,141.979,0.56717,0.18930,3.95930,NAN,NAN,9.90000
3070,0x000E,1,FALSE,152.998,0.61077,0.18930,3.95400,NAN,NAN,9.90000
3290,0x000E,1,FALSE,163.913,0.65390,0.18930,3.94980,NAN,NAN,10.50000
3510,0x000E,1,FALSE,174.927,0.69737,0.18930,3.94480,NAN,NAN,10.00000
3730,0x000E,1,FALSE,185.839,0.74039,0.18930,3.94020,NAN,NAN,10.40000
3950,0x000E,1,FALSE,196.849,0.78374,0.18930,3.93610,NAN,NAN,9.70000
4170,0x000E,1,FALSE,207.757,0.82665,0.18930,3.93130,NAN,NAN,9.80000
4390,0x000E,1,FALSE,218.766,0.86990,0.18930,3.92740,NAN,NAN,10.60000
4610,0x000E,1,FALSE,229.673,0.91271,0.18930,3.92300,NAN,NAN,10.00000
4830,0x000E,1,FALSE,240.682,0.95587,0.18930,3.91850,NAN,NAN,10.20000
5050,0x000E,1,FALSE,251.591,0.99860,0.18930,3.91500,NAN,NAN,10.00000
5270,0x000E,1,FALSE,262.554,1.04149,0.18930,3.91030,NAN,NAN,10.00000
5490,0x000E,1,FALSE,273.565,1.08452,0.18930,3.90610,NAN,NAN,10.50000
5710,0x000E,1,FALSE,284.476,1.12711,0.18930,3.90220,NAN,NAN,9.90000
5930,0x000E,1,FALSE,295.488,1.17006,0.18930,3.89760,NAN,NAN,10.00000
6150,0x000E,1,FALSE,306.399,1.21256,0.18930,3.89410,NAN,NAN,10.60000
6370,0x000E,1,FALSE,317.409,1.25541,0.18930,3.88950,NAN,NAN,10.10000
6590,0x000E,1,FALSE,328.319,1.29781,0.18930,3.88510,NAN,NAN,10.40000
6810,0x000E,1,FALSE,339.33,1.34057,0.18930,3.88140,NAN,NAN,9.70000
7030,0x000E,1,FALSE,350.244,1.38290,0.18930,3.87680,NAN,NAN,9.90000
7250,0x000E,1,FALSE,361.253,1.42556,0.18930,3.87280,NAN,NAN,10.70000
7470,0x000E,1,FALSE,372.164,1.46779,0.18930,3.86840,NAN,NAN,10.10000
7690,0x000E,1,FALSE,383.123,1.51015,0.18930,3.86360,NAN,NAN,10.20000
7910,0x000E,1,FALSE,394.132,1.55266,0.18930,3.85990,NAN,NAN,10.30000
8130,0x000E,1,FALSE,405.042,1.59474,0.18930,3.85490,NAN,NAN,10.20000
8350,0x000E,1,FALSE,416.051,1.63715,0.18930,3.85010,NAN,NAN,10.60000
8570,0x000E,1,FALSE,426.964,1.67914,0.18930,3.84560,NAN,NAN,9.90000
8790,0x000E,1,FALSE,437.978,1.72147,0.18930,3.84040,NAN,NAN,10.00000
9010,0x000E,1,FALSE,448.891,1.76335,0.18930,3.83600,NAN,NAN,10.70000
9230,0x000E,1,FALSE,459.902,1.80556,0.18930,3.83080,NAN,NAN,10.10000
9450,0x000E,1,FALSE,470.811,1.84731,0.18930,3.82560,NAN,NAN,10.40000
9670,0x000E,1,FALSE,481.818,1.88939,0.18930,3.82130,NAN,NAN,9.90000
9890,0x000E,1,FALSE,492.727,1.93105,0.18930,3.81620,NAN,NAN,10.00000
10110,0x000E,1,FALSE,503.684,1.97283,0.18930,3.81170,NAN,NAN,10.60000
10330,0x000E,1,FALSE,514.69,2.01476,0.18930,3.80730,NAN,NAN,10.00000
10550,0x000E,1,FALSE,525.6,2.05627,0.18930,3.80280,NAN,NAN,10.10000
10770,0x000E,1,FALSE,536.608,2.09811,0.18930,3.79960,NAN,NAN,10.30000
10990,0x000E,1,FALSE,547.516,2.13953,0.18930,3.79560,NAN,NAN,10.20000
11210,0x000E,1,FALSE,558.525,2.18129,0.18930,3.79210,NAN,NAN,10.50000
11430,0x000E,1,FALSE,569.435,2.22265,0.18930,3.78910,NAN,NAN,9.80000
11650,0x000E,1,FALSE,580.444,2.26434,0.18930,3.78560,NAN,NAN,9.90000
11870,0x000E,1,FALSE,591.352,2.30562,0.18930,3.78330,NAN,NAN,10.70000
12090,0x000E,1,FALSE,602.363,2.34725,0.18930,3.78030,NAN,NAN,10.10000
12310,0x000E,1,FALSE,613.273,2.38848,0.18930,3.77740,NAN,NAN,10.30000
12530,0x000E,1,FALSE,624.234,2.42987,0.18930,3.77540,NAN,NAN,9.80000
12750,0x000E,1,FALSE,635.245,2.47142,0.18930,3.77250,NAN,NAN,9.90000
12970,0x000E,1,FALSE,646.16,2.51258,0.18930,3.77030,NAN,NAN,10.60000
13190,0x000E,1,FALSE,657.177,2.55410,0.18930,3.76810,NAN,NAN,10.00000
13410,0x000E,1,FALSE,668.089,2.59520,0.18930,3.76550,NAN,NAN,10.00000
13630,0x000E,1,FALSE,679.098,2.63664,0.18930,3.76400,NAN,NAN,10.50000
13850,0x000E,1,FALSE,690.009,2.67770,0.18930,3.76160,NAN,NAN,10.10000
14070,0x000E,1,FALSE,701.021,2.71910,0.18930,3.75940,NAN,NAN,10.40000
14290,0x000E,1,FALSE,711.934,2.76012,0.18930,3.75780,NAN,NAN,9.80000
14510,0x000E,1,FALSE,722.946,2.80148,0.18930,3.75560,NAN,NAN,9.90000
14730,0x000E,1,FALSE,733.856,2.84245,0.18930,3.75410,NAN,NAN,10.70000
14950,0x000E,1,FALSE,744.816,2.88358,0.18930,3.75220,NAN,NAN,10.00000
15170,0x000E,1,FALSE,755.824,2.92487,0.18930,3.75010,NAN,NAN,10.20000
15390,0x000E,1,FALSE,766.731,2.96576,0.18930,3.74910,NAN,NAN,10.10000
15610,0x000E,1,FALSE,777.738,3.00701,0.18930,3.74710,NAN,NAN,10.10000
15830,0x000E,1,FALSE,788.646,3.04788,0.18930,3.74550,NAN,NAN,10.60000
16050,0x000E,1,FALSE,799.654,3.08909,0.18930,3.74420,NAN,NAN,9.90000
16270,0x000E,1,FALSE,810.562,3.12992,0.18930,3.74230,NAN,NAN,9.90000
16490,0x000E,1,FALSE,821.567,3.17110,0.18930,3.74140,NAN,NAN,10.70000
16710,0x000E,1,FALSE,832.475,3.21190,0.18930,3.73980,NAN,NAN,10.10000
16930,0x000E,1,FALSE,843.481,3.25305,0.18930,3.73830,NAN,NAN,10.40000
17150,0x000E,1,FALSE,854.387,3.29381,0.18930,3.73760,NAN,NAN,10.00000
17370,0x000E,1,FALSE,865.344,3.33475,0.18920,3.73610,NAN,NAN,10.10000
17590,0x000E,1,FALSE,876.3,3.37567,0.18930,3.73500,NAN,NAN,10.60000
17810,0x000E,1,FALSE,887.258,3.41659,0.18930,3.73400,NAN,NAN,10.00000
18030,0x000E,1,FALSE,898.266,3.45769,0.18930,3.73260,NAN,NAN,10.10000
18250,0x000E,1,FALSE,909.174,3.49840,0.18930,3.73220,NAN,NAN,10.70000
18470,0x000E,1,FALSE,920.181,3.53947,0.18930,3.73090,NAN,NAN,10.20000
18690,0x000E,1,FALSE,931.085,3.58014,0.18930,3.72970,NAN,NAN,10.40000
18910,0x000E,1,FALSE,942.088,3.62118,0.18930,3.72920,NAN,NAN,9.80000
19130,0x000E,1,FALSE,952.993,3.66183,0.18930,3.72800,NAN,NAN,10.00000
[...]
22210,0x000E,1,FALSE,1106.42,4.23261,0.18930,3.71080,NAN,NAN,10.70000
22430,0x000E,1,FALSE,1117.33,4.27307,0.18930,3.70900,NAN,NAN,10.10000
22650,0x000E,1,FALSE,1128.28,4.31369,0.18930,3.70660,NAN,NAN,10.20000
22870,0x000E,1,FALSE,1139.29,4.35447,0.18930,3.70490,NAN,NAN,10.80000
23090,0x000E,1,FALSE,1150.2,4.39488,0.18930,3.70220,NAN,NAN,10.40000
23310,0x000E,1,FALSE,1161.21,4.43564,0.18930,3.69940,NAN,NAN,10.60000
23530,0x000E,1,FALSE,1172.13,4.47599,0.18930,3.69710,NAN,NAN,10.00000
23750,0x000E,1,FALSE,1183.13,4.51667,0.18930,3.69390,NAN,NAN,10.20000
23970,0x000E,1,FALSE,1194.04,4.55694,0.18930,3.69100,NAN,NAN,10.90000
24190,0x000E,1,FALSE,1205.05,4.59754,0.18930,3.68740,NAN,NAN,10.40000
24410,0x000E,1,FALSE,1215.95,4.63773,0.18930,3.68340,NAN,NAN,10.50000
24630,0x000E,1,FALSE,1226.96,4.67825,0.18930,3.67980,NAN,NAN,10.50000
24850,0x000E,1,FALSE,1237.86,4.71835,0.18930,3.67490,NAN,NAN,10.50000
25070,0x000E,1,FALSE,1248.82,4.75858,0.18930,3.67010,NAN,NAN,10.80000
25290,0x000E,1,FALSE,1259.83,4.79895,0.18930,3.66520,NAN,NAN,10.30000
25510,0x000E,1,FALSE,1270.73,4.83889,0.18930,3.65980,NAN,NAN,10.30000
25730,0x000E,1,FALSE,1281.74,4.87915,0.18930,3.65470,NAN,NAN,10.90000
25950,0x000E,1,FALSE,1292.65,4.91897,0.18930,3.64810,NAN,NAN,10.50000
26170,0x000E,1,FALSE,1303.65,4.95908,0.18930,3.64110,NAN,NAN,10.70000
26390,0x000E,1,FALSE,1314.56,4.99875,0.18930,3.63510,NAN,NAN,10.10000
26610,0x000E,1,FALSE,1325.57,5.03873,0.18930,3.63010,NAN,NAN,10.30000
26830,0x000E,1,FALSE,1336.48,5.07832,0.18930,3.62720,NAN,NAN,11.00000
27050,0x000E,1,FALSE,1347.48,5.11822,0.18930,3.62410,NAN,NAN,10.40000
27270,0x000E,1,FALSE,1358.39,5.15772,0.18930,3.62080,NAN,NAN,10.60000
27490,0x000E,1,FALSE,1369.35,5.19739,0.18930,3.61850,NAN,NAN,10.30000
27710,0x000E,1,FALSE,1380.36,5.23719,0.18930,3.61490,NAN,NAN,10.50000
27930,0x000E,1,FALSE,1391.26,5.27660,0.18930,3.61130,NAN,NAN,10.90000
28150,0x000E,1,FALSE,1402.27,5.31634,0.18930,3.60740,NAN,NAN,10.30000
28370,0x000E,1,FALSE,1413.18,5.35567,0.18930,3.60220,NAN,NAN,10.40000
28590,0x000E,1,FALSE,1424.19,5.39530,0.18930,3.59770,NAN,NAN,10.80000
28810,0x000E,1,FALSE,1435.1,5.43450,0.18930,3.59070,NAN,NAN,10.50000
29030,0x000E,1,FALSE,1446.1,5.47396,0.18930,3.58250,NAN,NAN,10.80000
29250,0x000E,1,FALSE,1457.01,5.51298,0.18930,3.57330,NAN,NAN,10.10000
29470,0x000E,1,FALSE,1468.02,5.55223,0.18930,3.55960,NAN,NAN,10.30000
29690,0x000E,1,FALSE,1478.92,5.59097,0.18930,3.54270,NAN,NAN,11.00000
29910,0x000E,1,FALSE,1489.88,5.62966,0.18930,3.51790,NAN,NAN,10.50000
30130,0x000E,1,FALSE,1500.89,5.66820,0.18930,3.48250,NAN,NAN,10.70000
30350,0x000E,1,FALSE,1511.8,5.70595,0.18930,3.43820,NAN,NAN,10.70000
30570,0x000E,1,FALSE,1522.8,5.74347,0.18930,3.37810,NAN,NAN,10.80000
30790,0x000E,1,FALSE,1533.71,5.77991,0.18930,3.30290,NAN,NAN,11.10000
31010,0x000E,1,FALSE,1544.72,5.81575,0.18930,3.20290,NAN,NAN,10.60000
31230,0x000E,1,FALSE,1555.63,5.84992,0.18930,3.04760,NAN,NAN,10.70000
31422,0x000E,1,FALSE,1565.19,4.41573,0.18930,2.75000,NAN,NAN,11.40000

[DISCHARGE RESULT]
LoRange,FALSE
FinishedBy,1(Cut Voltage)
OpenVolt[V],4.05870
OpenCurr[A],0.00010
OpenTemp[°C],9.80000
StartVolt[V],4.05180
StartCurr[A],0.18900
StartTemp[°C],9.80000
CutoffVolt[V],2.75000
CutoffCurr[A],0.18930
CutoffTemp[°C],11.40000
TimeElapsed[s],31422
Power[Wh],4.41573
StartPulseA[V],NAN
CurrPulseA[V],NAN
StartPulseB[V],NAN
CurrPulseB[V],NAN
TempSet[°C],OFF
TempMon[°C],OFF
HumidSet[%],OFF
HumidMon[%],OFF

[LIFE]
CycleNo,2
Action,Discharge
Start,2021/03/01,20:01:11
End,2021/03/02,4:44:57
Capacity[mAh],1155.83

[IMPEDANCE],AfterCharge,AfterRest
Range,0,0
AutoRange,FALSE,FALSE
Resistance[ohm],NAN,NAN
Reactance[ohm],NAN,NAN

File: temp12.CSV
[TEST CONDITION]
CondName,バッテリ温度特性試験20210227
ModelID,21
Average,0
CheckDut,FALSE
AutoFine,FALSE
DateTime,2021/02/27,21:40:39
Operator,米山まうむ
Notes,運用に向けてバッテリの温度特性を測定する
運用時の消費電流を鑑み，0.1C放電で行う
なおこんなに運用直前にやることではないので，次期プロジェクトの人間はもっと早い段階で行うことをお勧めする
BatteryName,UF103450P
NominalCapacity[mAh],1800.0
NominalVoltage[V],3.70000
Volume[ml],0.10
Weight[g],38.30
SoftOvp[V],4.40000
SoftUvp[V],2.50000
SoftOah[%],110
SoftOtp[°C],60.00000
DeltaT[s],10.00000
DeltaV[V],0.10000
DeltaI[A],0.10000
ImpRange[ohm],0
Frequency[Hz],1000
AutoRange,FALSE
AfterCharge,FALSE
AfterChargeRest,FALSE
AfterDischarge,FALSE
AfterDischargeRest,FALSE
CapacityRate_C[%],OFF
CapacityRate_D[%],OFF
Impedance_C[ohm],OFF
Impedance_D[ohm],OFF
SeqInfoName,

[CHARGE SHEET]
SheetNo,2
Range,HIGH
Mode,CC-CV
ChargeTime[s],0
RestTime[s],0
Current[A],0.00000
CvVolt[V],0.00000
CvTime[s],0
ItCurrent[A],OFF
ItTime[s],OFF

[DISCHARGE SHEET]
SheetNo,2
Range,HIGH
Mode,CC
DischargeTime[s],43200
RestTime[s],0
Current[A],0.18800
CapacityVolt[V],3.70000
CutoffVolt[V],2.75000

[DISCHARGE MONITOR]
TimeElapsed[s],StdState,OpnState,LowRange,Capacity[mAh],Power[Wh],Curr[A],Volt[V],VoltHi[V],VoltLo[V],Temp[°C],TermState,CellVolt[V],CellVoltHi[V],CellVoltLo[V],CellTemp[°C],(continued)
0,0x000E,0,FALSE,0.00000,0.00000,0.00000,4.09150,NAN,NAN,12.60000
220,0x000E,1,FALSE,10.93383,0.04432,0.18930,4.04680,NAN,NAN,12.10000
450,0x000E,1,FALSE,22.48033,0.09099,0.18930,4.03890,NAN,NAN,12.40000
680,0x000E,1,FALSE,33.92870,0.13719,0.18930,4.03260,NAN,NAN,12.00000
910,0x000E,1,FALSE,45.47603,0.18372,0.18930,4.02640,NAN,NAN,12.20000
1140,0x000E,1,FALSE,56.91544,0.22974,0.18930,4.02110,NAN,NAN,12.30000
1370,0x000E,1,FALSE,68.45353,0.27610,0.18930,4.01540,NAN,NAN,12.20000
1600,0x000E,1,FALSE,79.89333,0.32200,0.18930,4.01010,NAN,NAN,12.80000
1830,0x000E,1,FALSE,91.38264,0.36804,0.18930,4.00450,NAN,NAN,12.30000
2060,0x000E,1,FALSE,102.926,0.41423,0.18930,3.99890,NAN,NAN,12.60000
2290,0x000E,1,FALSE,114.362,0.45993,0.18930,3.99360,NAN,NAN,12.20000
2520,0x000E,1,FALSE,125.901,0.50598,0.18930,3.98790,NAN,NAN,12.30000
2750,0x000E,1,FALSE,137.343,0.55158,0.18930,3.98280,NAN,NAN,12.10000
2980,0x000E,1,FALSE,148.887,0.59752,0.18930,3.97730,NAN,NAN,12.10000
3210,0x000E,1,FALSE,160.334,0.64301,0.18930,3.97250,NAN,NAN,12.80000
3440,0x000E,1,FALSE,171.83,0.68865,0.18930,3.96730,NAN,NAN,12.30000
3670,0x000E,1,FALSE,183.376,0.73442,0.18930,3.96240,NAN,NAN,12.70000
3900,0x000E,1,FALSE,194.821,0.77974,0.18930,3.95780,NAN,NAN,12.10000
4130,0x000E,1,FALSE,206.364,0.82539,0.18930,3.95300,NAN,NAN,12.40000
4360,0x000E,1,FALSE,217.81,0.87061,0.18930,3.94880,NAN,NAN,11.90000
4590,0x000E,1,FALSE,229.352,0.91616,0.18930,3.94420,NAN,NAN,12.10000
4820,0x000E,1,FALSE,240.796,0.96127,0.18930,3.94010,NAN,NAN,12.60000
5050,0x000E,1,FALSE,252.288,1.00652,0.18930,3.93570,NAN,NAN,12.20000
5280,0x000E,1,FALSE,263.833,1.05193,0.18930,3.93140,NAN,NAN,12.70000
5510,0x000E,1,FALSE,275.273,1.09688,0.18930,3.92720,NAN,NAN,12.20000
5740,0x000E,1,FALSE,286.815,1.14218,0.18930,3.92280,NAN,NAN,12.50000
5970,0x000E,1,FALSE,298.254,1.18703,0.18930,3.91890,NAN,NAN,12.10000
6200,0x000E,1,FALSE,309.793,1.23222,0.18930,3.91440,NAN,NAN,12.10000
6430,0x000E,1,FALSE,321.231,1.27696,0.18930,3.91050,NAN,NAN,12.40000
6660,0x000E,1,FALSE,332.721,1.32186,0.18930,3.90610,NAN,NAN,12.30000
6890,0x000E,1,FALSE,344.259,1.36691,0.18930,3.90200,NAN,NAN,12.80000
7120,0x000E,1,FALSE,355.698,1.41152,0.18930,3.89780,NAN,NAN,12.30000
7350,0x000E,1,FALSE,367.234,1.45645,0.18930,3.89340,NAN,NAN,12.60000
7580,0x000E,1,FALSE,378.671,1.50096,0.18930,3.88940,NAN,NAN,12.10000
7810,0x000E,1,FALSE,390.21,1.54580,0.18930,3.88480,NAN,NAN,12.30000
8040,0x000E,1,FALSE,401.642,1.59019,0.18930,3.88090,NAN,NAN,12.20000
8270,0x000E,1,FALSE,413.177,1.63493,0.18930,3.87620,NAN,NAN,12.20000
8500,0x000E,1,FALSE,424.664,1.67942,0.18930,3.87190,NAN,NAN,12.80000
8730,0x000E,1,FALSE,436.103,1.72368,0.18930,3.86710,NAN,NAN,12.30000
8960,0x000E,1,FALSE,447.647,1.76829,0.18930,3.86220,NAN,NAN,12.70000
9190,0x000E,1,FALSE,459.086,1.81244,0.18930,3.85740,NAN,NAN,12.20000
9420,0x000E,1,FALSE,470.626,1.85692,0.18930,3.85190,NAN,NAN,12.40000
9650,0x000E,1,FALSE,482.07,1.90097,0.18930,3.84690,NAN,NAN,12.10000
9880,0x000E,1,FALSE,493.616,1.94535,0.18930,3.84090,NAN,NAN,12.10000
10110,0x000E,1,FALSE,505.062,1.98928,0.18930,3.83550,NAN,NAN,12.80000
10340,0x000E,1,FALSE,516.555,2.03332,0.18930,3.82960,NAN,NAN,12.40000
10570,0x000E,1,FALSE,528.095,2.07748,0.18930,3.82410,NAN,NAN,12.80000
10800,0x000E,1,FALSE,539.537,2.12120,0.18930,3.81890,NAN,NAN,12.30000
11030,0x000E,1,FALSE,551.078,2.16525,0.18930,3.81380,NAN,NAN,12.50000
11260,0x000E,1,FALSE,562.521,2.20886,0.18930,3.80970,NAN,NAN,12.00000
11490,0x000E,1,FALSE,574.064,2.25281,0.18930,3.80540,NAN,NAN,12.20000
11720,0x000E,1,FALSE,585.505,2.29632,0.18930,3.80220,NAN,NAN,12.50000
11950,0x000E,1,FALSE,596.995,2.33998,0.18930,3.79870,NAN,NAN,12.30000
12180,0x000E,1,FALSE,608.536,2.38380,0.18930,3.79560,NAN,NAN,12.80000
12410,0x000E,1,FALSE,619.972,2.42719,0.18930,3.79270,NAN,NAN,12.20000
12640,0x000E,1,FALSE,631.51,2.47093,0.18930,3.78980,NAN,NAN,12.60000
12870,0x000E,1,FALSE,642.951,2.51427,0.18930,3.78730,NAN,NAN,12.10000
13100,0x000E,1,FALSE,654.487,2.55794,0.18930,3.78460,NAN,NAN,12.20000
13330,0x000E,1,FALSE,665.923,2.60121,0.18930,3.78240,NAN,NAN,12.20000
13560,0x000E,1,FALSE,677.411,2.64464,0.18930,3.77980,NAN,NAN,12.10000
13790,0x000E,1,FALSE,688.948,2.68823,0.18930,3.77770,NAN,NAN,12.80000
14020,0x000E,1,FALSE,700.383,2.73141,0.18930,3.77540,NAN,NAN,12.30000
14250,0x000E,1,FALSE,711.919,2.77495,0.18930,3.77310,NAN,NAN,12.60000
14480,0x000E,1,FALSE,723.357,2.81809,0.18930,3.77110,NAN,NAN,12.20000
14710,0x000E,1,FALSE,734.894,2.86159,0.18930,3.76880,NAN,NAN,12.30000
14940,0x000E,1,FALSE,746.334,2.90469,0.18930,3.76710,NAN,NAN,12.10000
15170,0x000E,1,FALSE,757.871,2.94813,0.18930,3.76500,NAN,NAN,12.10000
15400,0x000E,1,FALSE,769.359,2.99137,0.18930,3.76330,NAN,NAN,12.80000
15630,0x000E,1,FALSE,780.795,3.03439,0.18930,3.76130,NAN,NAN,12.30000
15860,0x000E,1,FALSE,792.329,3.07776,0.18930,3.75940,NAN,NAN,12.70000
16090,0x000E,1,FALSE,803.765,3.12074,0.18930,3.75770,NAN,NAN,12.20000
16320,0x000E,1,FALSE,815.299,3.16407,0.18930,3.75580,NAN,NAN,12.40000
16550,0x000E,1,FALSE,826.735,3.20701,0.18930,3.75440,NAN,NAN,12.00000
16780,0x000E,1,FALSE,838.275,3.25032,0.18930,3.75260,NAN,NAN,12.10000
17010,0x000E,1,FALSE,849.714,3.29324,0.18930,3.75120,NAN,NAN,12.60000
17240,0x000E,1,FALSE,861.199,3.33631,0.18930,3.74950,NAN,NAN,12.30000
17470,0x000E,1,FALSE,872.734,3.37954,0.18930,3.74810,NAN,NAN,12.80000
17700,0x000E,1,FALSE,884.17,3.42240,0.18930,3.74670,NAN,NAN,12.30000
17930,0x000E,1,FALSE,895.71,3.46562,0.18930,3.74520,NAN,NAN,12.60000
18160,0x000E,1,FALSE,907.148,3.50845,0.18940,3.74400,NAN,NAN,12.10000
18390,0x000E,1,FALSE,918.688,3.55165,0.18930,3.74250,NAN,NAN,12.30000
18620,0x000E,1,FALSE,930.129,3.59446,0.18930,3.74160,NAN,NAN,12.40000
18850,0x000E,1,FALSE,941.618,3.63743,0.18930,3.74020,NAN,NAN,12.30000
19080,0x000E,1,FALSE,953.156,3.68057,0.18930,3.73920,NAN,NAN,12.90000
19310,0x000E,1,FALSE,964.599,3.72335,0.18930,3.73810,NAN,NAN,12.40000
19540,0x000E,1,FALSE,976.143,3.76649,0.18930,3.73690,NAN,NAN,12.70000
19770,0x000E,1,FALSE,987.584,3.80924,0.18930,3.73600,NAN,NAN,12.30000
[...]
22300,0x000E,1,FALSE,1114,4.28078,0.18930,3.72430,NAN,NAN,12.60000
22530,0x000E,1,FALSE,1125.44,4.32337,0.18930,3.72270,NAN,NAN,12.50000
22760,0x000E,1,FALSE,1136.98,4.36631,0.18930,3.72120,NAN,NAN,13.00000
22990,0x000E,1,FALSE,1148.41,4.40886,0.18930,3.71940,NAN,NAN,12.50000
23220,0x000E,1,FALSE,1159.95,4.45175,0.18930,3.71740,NAN,NAN,12.80000
23450,0x000E,1,FALSE,1171.39,4.49425,0.18930,3.71540,NAN,NAN,12.40000
23680,0x000E,1,FALSE,1182.92,4.53709,0.18930,3.71300,NAN,NAN,12.60000
23910,0x000E,1,FALSE,1194.36,4.57955,0.18930,3.71080,NAN,NAN,12.40000
24140,0x000E,1,FALSE,1205.85,4.62215,0.18930,3.70800,NAN,NAN,12.40000
24370,0x000E,1,FALSE,1217.38,4.66491,0.18930,3.70530,NAN,NAN,13.10000
24600,0x000E,1,FALSE,1228.81,4.70725,0.18930,3.70210,NAN,NAN,12.60000
24830,0x000E,1,FALSE,1240.35,4.74993,0.18930,3.69870,NAN,NAN,13.00000
25060,0x000E,1,FALSE,1251.79,4.79221,0.18930,3.69500,NAN,NAN,12.60000
25290,0x000E,1,FALSE,1263.32,4.83480,0.18930,3.69060,NAN,NAN,12.70000
25520,0x000E,1,FALSE,1274.76,4.87698,0.18930,3.68590,NAN,NAN,12.30000
25750,0x000E,1,FALSE,1286.24,4.91928,0.18930,3.68070,NAN,NAN,12.40000
25980,0x000E,1,FALSE,1297.78,4.96172,0.18930,3.67580,NAN,NAN,12.90000
26210,0x000E,1,FALSE,1309.22,5.00372,0.18930,3.67020,NAN,NAN,12.70000
26440,0x000E,1,FALSE,1320.75,5.04602,0.18930,3.66390,NAN,NAN,13.10000
26670,0x000E,1,FALSE,1332.19,5.08788,0.18930,3.65690,NAN,NAN,12.60000
26900,0x000E,1,FALSE,1343.72,5.13002,0.18930,3.65060,NAN,NAN,12.80000
27130,0x000E,1,FALSE,1355.16,5.17174,0.18930,3.64720,NAN,NAN,12.50000
27360,0x000E,1,FALSE,1366.65,5.21362,0.18930,3.64480,NAN,NAN,12.60000
27590,0x000E,1,FALSE,1378.18,5.25565,0.18930,3.64300,NAN,NAN,12.60000
27820,0x000E,1,FALSE,1389.62,5.29730,0.18930,3.64080,NAN,NAN,12.50000
28050,0x000E,1,FALSE,1401.16,5.33929,0.18930,3.63870,NAN,NAN,13.10000
28280,0x000E,1,FALSE,1412.59,5.38088,0.18930,3.63630,NAN,NAN,12.70000
28510,0x000E,1,FALSE,1424.12,5.42280,0.18930,3.63350,NAN,NAN,13.00000
28740,0x000E,1,FALSE,1435.56,5.46433,0.18930,3.63060,NAN,NAN,12.50000
28970,0x000E,1,FALSE,1447.05,5.50601,0.18930,3.62680,NAN,NAN,12.70000
29200,0x000E,1,FALSE,1458.58,5.54783,0.18930,3.62290,NAN,NAN,12.30000
29430,0x000E,1,FALSE,1470.02,5.58923,0.18930,3.61760,NAN,NAN,12.40000
29660,0x000E,1,FALSE,1481.56,5.63093,0.18930,3.61160,NAN,NAN,12.90000
29890,0x000E,1,FALSE,1492.99,5.67218,0.18930,3.60270,NAN,NAN,12.70000
30120,0x000E,1,FALSE,1504.53,5.71367,0.18930,3.58960,NAN,NAN,13.10000
30350,0x000E,1,FALSE,1515.97,5.75462,0.18930,3.56830,NAN,NAN,12.70000
30580,0x000E,1,FALSE,1527.51,5.79560,0.18930,3.53420,NAN,NAN,13.00000
30810,0x000E,1,FALSE,1538.94,5.83576,0.18930,3.48790,NAN,NAN,12.60000
31040,0x000E,1,FALSE,1550.43,5.87549,0.18930,3.42630,NAN,NAN,12.80000
31270,0x000E,1,FALSE,1561.97,5.91458,0.18930,3.34730,NAN,NAN,12.80000
31500,0x000E,1,FALSE,1573.41,5.95228,0.18930,3.23830,NAN,NAN,12.70000
31730,0x000E,1,FALSE,1584.94,5.98873,0.18930,3.05950,NAN,NAN,13.40000
31876,0x000E,1,FALSE,1592.19,4.72222,0.18950,2.75000,NAN,NAN,12.90000

[DISCHARGE RESULT]
LoRange,FALSE
FinishedBy,1(Cut Voltage)
OpenVolt[V],4.06740
OpenCurr[A],0.00010
OpenTemp[°C],12.70000
StartVolt[V],4.06650
StartCurr[A],0.18920
StartTemp[°C],12.70000
CutoffVolt[V],2.75000
CutoffCurr[A],0.18950
CutoffTemp[°C],12.90000
TimeElapsed[s],31876
Power[Wh],4.72222
StartPulseA[V],NAN
CurrPulseA[V],NAN
StartPulseB[V],NAN
CurrPulseB[V],NAN
TempSet[°C],OFF
TempMon[°C],OFF
HumidSet[%],OFF
HumidMon[%],OFF

[LIFE]
CycleNo,2
Action,Discharge
Start,2021/03/08,3:35:23
End,2021/03/08,12:26:43
Capacity[mAh],1232.86

[IMPEDANCE],AfterCharge,AfterRest
Range,0,0
AutoRange,FALSE,FALSE
Resistance[ohm],NAN,NAN
Reactance[ohm],NAN,NAN